Time,header.seq,header.stamp.secs,header.stamp.nsecs,header.frame_id,orientation.x,orientation.y,orientation.z,orientation.w,orientation_covariance_0,orientation_covariance_1,orientation_covariance_2,orientation_covariance_3,orientation_covariance_4,orientation_covariance_5,orientation_covariance_6,orientation_covariance_7,orientation_covariance_8,angular_velocity.x,angular_velocity.y,angular_velocity.z,angular_velocity_covariance_0,angular_velocity_covariance_1,angular_velocity_covariance_2,angular_velocity_covariance_3,angular_velocity_covariance_4,angular_velocity_covariance_5,angular_velocity_covariance_6,angular_velocity_covariance_7,angular_velocity_covariance_8,linear_acceleration.x,linear_acceleration.y,linear_acceleration.z,linear_acceleration_covariance_0,linear_acceleration_covariance_1,linear_acceleration_covariance_2,linear_acceleration_covariance_3,linear_acceleration_covariance_4,linear_acceleration_covariance_5,linear_acceleration_covariance_6,linear_acceleration_covariance_7,linear_acceleration_covariance_8
1678822351.914693,11717,1678822351,913856658,aquila2/os_imu,0.0,0.0,0.0,0.0,-1.0,-1.0,-1.0,-1.0,-1.0,-1.0,-1.0,-1.0,-1.0,-0.005992112452678286,-0.01384843766841204,0.0011984224905356572,0.0006,0.0,0.0,0.0,0.0006,0.0,0.0,0.0,0.0006,0.36391865234375,-0.19871873779296872,10.273519323730468,0.01,0.0,0.0,0.0,0.01,0.0,0.0,0.0,0.01
1678822351.925481,11718,1678822351,923856629,aquila2/os_imu,0.0,0.0,0.0,0.0,-1.0,-1.0,-1.0,-1.0,-1.0,-1.0,-1.0,-1.0,-1.0,-0.013715279613908078,0.0073236929977179045,0.0022636869265673524,0.0006,0.0,0.0,0.0,0.0006,0.0,0.0,0.0,0.0006,0.3016694091796875,-0.009576806640625,9.86411083984375,0.01,0.0,0.0,0.0,0.01,0.0,0.0,0.0,0.01
1678822351.9349644,11719,1678822351,933857110,aquila2/os_imu,0.0,0.0,0.0,0.0,-1.0,-1.0,-1.0,-1.0,-1.0,-1.0,-1.0,-1.0,-1.0,-0.01251685712337242,0.002663161090079238,0.001731054708551505,0.0006,0.0,0.0,0.0,0.0006,0.0,0.0,0.0,0.0006,0.23223756103515625,-0.4070142822265625,9.816226806640625,0.01,0.0,0.0,0.0,0.01,0.0,0.0,0.0,0.01
1678822351.9458575,11720,1678822351,943857014,aquila2/os_imu,0.0,0.0,0.0,0.0,-1.0,-1.0,-1.0,-1.0,-1.0,-1.0,-1.0,-1.0,-1.0,0.0010652644360316951,-0.010120012142301104,0.005858954398174323,0.0006,0.0,0.0,0.0,0.0006,0.0,0.0,0.0,0.0006,0.16759411621093748,-0.5913678100585937,9.911994873046874,0.01,0.0,0.0,0.0,0.01,0.0,0.0,0.0,0.01
1678822351.9552374,11721,1678822351,953876940,aquila2/os_imu,0.0,0.0,0.0,0.0,-1.0,-1.0,-1.0,-1.0,-1.0,-1.0,-1.0,-1.0,-1.0,0.021038972611625982,-0.013049489341388266,0.009853696033293181,0.0006,0.0,0.0,0.0,0.0006,0.0,0.0,0.0,0.0006,-0.06703764648437499,-0.19393033447265623,9.756371765136718,0.01,0.0,0.0,0.0,0.01,0.0,0.0,0.0,0.01
1678822351.9645178,11722,1678822351,963877242,aquila2/os_imu,0.0,0.0,0.0,0.0,-1.0,-1.0,-1.0,-1.0,-1.0,-1.0,-1.0,-1.0,-1.0,0.0055926382891664,-0.010519486305812991,0.00905474770626941,0.0006,0.0,0.0,0.0,0.0006,0.0,0.0,0.0,0.0006,0.13407529296874998,-0.04548983154296875,10.050858569335936,0.01,0.0,0.0,0.0,0.01,0.0,0.0,0.0,0.01
1678822351.9755373,11723,1678822351,973877087,aquila2/os_imu,0.0,0.0,0.0,0.0,-1.0,-1.0,-1.0,-1.0,-1.0,-1.0,-1.0,-1.0,-1.0,-0.020639498448114094,-0.0066579027251980945,0.0049268480166465905,0.0006,0.0,0.0,0.0,0.0006,0.0,0.0,0.0,0.0006,0.2346317626953125,-0.19153613281249998,9.698910925292969,0.01,0.0,0.0,0.0,0.01,0.0,0.0,0.0,0.01
1678822351.9848971,11724,1678822351,983896642,aquila2/os_imu,0.0,0.0,0.0,0.0,-1.0,-1.0,-1.0,-1.0,-1.0,-1.0,-1.0,-1.0,-1.0,-0.009587379924285258,0.0005326322180158476,0.00346210941710301,0.0006,0.0,0.0,0.0,0.0006,0.0,0.0,0.0,0.0006,0.08858546142578125,-0.44053310546874996,10.13226142578125,0.01,0.0,0.0,0.0,0.01,0.0,0.0,0.0,0.01
1678822351.9958045,11725,1678822351,993896621,aquila2/os_imu,0.0,0.0,0.0,0.0,-1.0,-1.0,-1.0,-1.0,-1.0,-1.0,-1.0,-1.0,-1.0,0.0006657902725198095,-0.012250541014364496,-0.0003994741635118857,0.0006,0.0,0.0,0.0,0.0006,0.0,0.0,0.0,0.0006,0.076614453125,-0.7062894897460937,10.050858569335936,0.01,0.0,0.0,0.0,0.01,0.0,0.0,0.0,0.01
1678822352.0051985,11726,1678822352,3897412,aquila2/os_imu,0.0,0.0,0.0,0.0,-1.0,-1.0,-1.0,-1.0,-1.0,-1.0,-1.0,-1.0,-1.0,0.013182647395892227,-0.0015978966540475428,0.0002663161090079238,0.0006,0.0,0.0,0.0,0.0006,0.0,0.0,0.0,0.0006,0.1292868896484375,-0.3447650390625,9.682151513671874,0.01,0.0,0.0,0.0,0.01,0.0,0.0,0.0,0.01
1678822352.0146291,11727,1678822352,13897791,aquila2/os_imu,0.0,0.0,0.0,0.0,-1.0,-1.0,-1.0,-1.0,-1.0,-1.0,-1.0,-1.0,-1.0,-0.0014647385995435807,-0.013981595722916,0.0003994741635118857,0.0006,0.0,0.0,0.0,0.0006,0.0,0.0,0.0,0.0006,0.14125789794921875,-0.1580173095703125,9.981426721191406,0.01,0.0,0.0,0.0,0.01,0.0,0.0,0.0,0.01
1678822352.0255911,11728,1678822352,23916014,aquila2/os_imu,0.0,0.0,0.0,0.0,-1.0,-1.0,-1.0,-1.0,-1.0,-1.0,-1.0,-1.0,-1.0,-0.02769687533682408,-0.0029294771990871615,0.0111852765783328,0.0006,0.0,0.0,0.0,0.0006,0.0,0.0,0.0,0.0006,0.1388636962890625,0.05746083984375,9.775525378417969,0.01,0.0,0.0,0.0,0.01,0.0,0.0,0.0,0.01
1678822352.0349195,11729,1678822352,33917879,aquila2/os_imu,0.0,0.0,0.0,0.0,-1.0,-1.0,-1.0,-1.0,-1.0,-1.0,-1.0,-1.0,-1.0,-0.029960562263391426,0.0014647385995435807,0.005725796343670361,0.0006,0.0,0.0,0.0,0.0006,0.0,0.0,0.0,0.0006,0.3399766357421875,-0.40222587890625,9.81862100830078,0.01,0.0,0.0,0.0,0.01,0.0,0.0,0.0,0.01
1678822352.0459187,11730,1678822352,43918054,aquila2/os_imu,0.0,0.0,0.0,0.0,-1.0,-1.0,-1.0,-1.0,-1.0,-1.0,-1.0,-1.0,-1.0,0.002530003035575276,-0.0038615835806148956,0.00692421883420602,0.0006,0.0,0.0,0.0,0.0006,0.0,0.0,0.0,0.0006,-0.009576806640625,-0.7350199096679687,9.91438907470703,0.01,0.0,0.0,0.0,0.01,0.0,0.0,0.0,0.01
1678822352.0552063,11731,1678822352,53935957,aquila2/os_imu,0.0,0.0,0.0,0.0,-1.0,-1.0,-1.0,-1.0,-1.0,-1.0,-1.0,-1.0,-1.0,0.013049489341388266,-0.0073236929977179045,0.0021305288720633903,0.0006,0.0,0.0,0.0,0.0006,0.0,0.0,0.0,0.0006,-0.13168109130859373,-0.06943184814453125,9.85692823486328,0.01,0.0,0.0,0.0,0.01,0.0,0.0,0.0,0.01
1678822352.0646045,11732,1678822352,63935847,aquila2/os_imu,0.0,0.0,0.0,0.0,-1.0,-1.0,-1.0,-1.0,-1.0,-1.0,-1.0,-1.0,-1.0,-0.010253170196805066,-0.0167779148674992,-0.004127899689622819,0.0006,0.0,0.0,0.0,0.0006,0.0,0.0,0.0,0.0006,0.3184288208007812,-0.055066638183593745,9.878476049804688,0.01,0.0,0.0,0.0,0.01,0.0,0.0,0.0,0.01
1678822352.075514,11733,1678822352,73938390,aquila2/os_imu,0.0,0.0,0.0,0.0,-1.0,-1.0,-1.0,-1.0,-1.0,-1.0,-1.0,-1.0,-1.0,-0.01251685712337242,-0.012383699068868458,0.004660531907638666,0.0006,0.0,0.0,0.0,0.0006,0.0,0.0,0.0,0.0006,0.36391865234375,-0.11013327636718749,9.821015209960937,0.01,0.0,0.0,0.0,0.01,0.0,0.0,0.0,0.01
1678822352.084887,11734,1678822352,83955736,aquila2/os_imu,0.0,0.0,0.0,0.0,-1.0,-1.0,-1.0,-1.0,-1.0,-1.0,-1.0,-1.0,-1.0,-0.012250541014364496,0.0066579027251980945,0.005725796343670361,0.0006,0.0,0.0,0.0,0.0006,0.0,0.0,0.0,0.0006,0.11731588134765625,-0.5817910034179687,9.9981861328125,0.01,0.0,0.0,0.0,0.01,0.0,0.0,0.0,0.01
1678822352.095743,11735,1678822352,93955687,aquila2/os_imu,0.0,0.0,0.0,0.0,-1.0,-1.0,-1.0,-1.0,-1.0,-1.0,-1.0,-1.0,-1.0,0.005060006071150552,-0.014514227940931847,0.001331580545039619,0.0006,0.0,0.0,0.0,0.0006,0.0,0.0,0.0,0.0006,0.23223756103515625,-0.8283937744140625,9.97184991455078,0.01,0.0,0.0,0.0,0.01,0.0,0.0,0.0,0.01
1678822352.1052027,11736,1678822352,103958599,aquila2/os_imu,0.0,0.0,0.0,0.0,-1.0,-1.0,-1.0,-1.0,-1.0,-1.0,-1.0,-1.0,-1.0,0.016511598758491276,-0.020106866230098247,0.006524744670694133,0.0006,0.0,0.0,0.0,0.0006,0.0,0.0,0.0,0.0006,0.35194764404296874,-0.5147533569335937,9.72285294189453,0.01,0.0,0.0,0.0,0.01,0.0,0.0,0.0,0.01
1678822352.1146488,11737,1678822352,113958705,aquila2/os_imu,0.0,0.0,0.0,0.0,-1.0,-1.0,-1.0,-1.0,-1.0,-1.0,-1.0,-1.0,-1.0,-0.01038632825130903,0.003062635253591124,0.0021305288720633903,0.0006,0.0,0.0,0.0,0.0006,0.0,0.0,0.0,0.0006,0.016759411621093748,-0.05027823486328125,10.031704956054687,0.01,0.0,0.0,0.0,0.01,0.0,0.0,0.0,0.01
1678822352.125603,11738,1678822352,123975293,aquila2/os_imu,0.0,0.0,0.0,0.0,-1.0,-1.0,-1.0,-1.0,-1.0,-1.0,-1.0,-1.0,-1.0,-0.021438446775137867,0.008788431597261486,0.003728425526110933,0.0006,0.0,0.0,0.0,0.0006,0.0,0.0,0.0,0.0006,0.39264907226562495,-0.16280571289062498,10.000580334472655,0.01,0.0,0.0,0.0,0.01,0.0,0.0,0.0,0.01
1678822352.1349669,11739,1678822352,133974831,aquila2/os_imu,0.0,0.0,0.0,0.0,-1.0,-1.0,-1.0,-1.0,-1.0,-1.0,-1.0,-1.0,-1.0,-0.01824265346704278,0.005725796343670361,0.0021305288720633903,0.0006,0.0,0.0,0.0,0.0006,0.0,0.0,0.0,0.0006,0.4165910888671875,-0.6847416748046875,9.9981861328125,0.01,0.0,0.0,0.0,0.01,0.0,0.0,0.0,0.01
1678822352.1458764,11740,1678822352,143979102,aquila2/os_imu,0.0,0.0,0.0,0.0,-1.0,-1.0,-1.0,-1.0,-1.0,-1.0,-1.0,-1.0,-1.0,-0.0033289513625990473,-0.006791060779702058,0.0027963191445832,0.0006,0.0,0.0,0.0,0.0006,0.0,0.0,0.0,0.0006,0.12210428466796874,-0.6751648681640625,10.01015714111328,0.01,0.0,0.0,0.0,0.01,0.0,0.0,0.0,0.01
1678822352.1553,11741,1678822352,153994979,aquila2/os_imu,0.0,0.0,0.0,0.0,-1.0,-1.0,-1.0,-1.0,-1.0,-1.0,-1.0,-1.0,-1.0,0.01691107292200316,-0.0042610577441267805,0.0027963191445832,0.0006,0.0,0.0,0.0,0.0006,0.0,0.0,0.0,0.0006,0.23223756103515625,-0.3232172241210937,9.686939916992188,0.01,0.0,0.0,0.0,0.01,0.0,0.0,0.0,0.01
1678822352.1646025,11742,1678822352,163994883,aquila2/os_imu,0.0,0.0,0.0,0.0,-1.0,-1.0,-1.0,-1.0,-1.0,-1.0,-1.0,-1.0,-1.0,0.004527373853134705,-0.010652644360316953,0.0011984224905356572,0.0006,0.0,0.0,0.0,0.0006,0.0,0.0,0.0,0.0006,0.354341845703125,-0.239420166015625,9.995791931152343,0.01,0.0,0.0,0.0,0.01,0.0,0.0,0.0,0.01
1678822352.175574,11743,1678822352,173999172,aquila2/os_imu,0.0,0.0,0.0,0.0,-1.0,-1.0,-1.0,-1.0,-1.0,-1.0,-1.0,-1.0,-1.0,-0.00972053797878922,0.0005326322180158476,0.004127899689622819,0.0006,0.0,0.0,0.0,0.0006,0.0,0.0,0.0,0.0006,0.2705447875976562,-0.03591302490234375,9.672574707031249,0.01,0.0,0.0,0.0,0.01,0.0,0.0,0.0,0.01
1678822352.1849663,11744,1678822352,183999437,aquila2/os_imu,0.0,0.0,0.0,0.0,-1.0,-1.0,-1.0,-1.0,-1.0,-1.0,-1.0,-1.0,-1.0,-0.00625842856168621,-0.01265001517787638,0.005193164125654515,0.0006,0.0,0.0,0.0,0.0006,0.0,0.0,0.0,0.0006,0.21308394775390624,-0.6081272216796875,9.8449572265625,0.01,0.0,0.0,0.0,0.01,0.0,0.0,0.0,0.01
1678822352.1959045,11745,1678822352,194014819,aquila2/os_imu,0.0,0.0,0.0,0.0,-1.0,-1.0,-1.0,-1.0,-1.0,-1.0,-1.0,-1.0,-1.0,0.00692421883420602,-0.007456851052221866,-0.0005326322180158476,0.0006,0.0,0.0,0.0,0.0006,0.0,0.0,0.0,0.0006,0.28012159423828126,-0.8475473876953125,9.868899243164062,0.01,0.0,0.0,0.0,0.01,0.0,0.0,0.0,0.01
1678822352.205359,11746,1678822352,204019643,aquila2/os_imu,0.0,0.0,0.0,0.0,-1.0,-1.0,-1.0,-1.0,-1.0,-1.0,-1.0,-1.0,-1.0,0.013582121559404116,-0.011451592687340723,-0.0019973708175594286,0.0006,0.0,0.0,0.0,0.0006,0.0,0.0,0.0,0.0006,0.016759411621093748,-0.612915625,9.749189160156249,0.01,0.0,0.0,0.0,0.01,0.0,0.0,0.0,0.01
1678822352.2147427,11747,1678822352,214019747,aquila2/os_imu,0.0,0.0,0.0,0.0,-1.0,-1.0,-1.0,-1.0,-1.0,-1.0,-1.0,-1.0,-1.0,0.001731054708551505,-0.014114753777419962,-0.0021305288720633903,0.0006,0.0,0.0,0.0,0.0006,0.0,0.0,0.0,0.0006,0.05027823486328125,-0.18914193115234373,9.945513696289062,0.01,0.0,0.0,0.0,0.01,0.0,0.0,0.0,0.01
1678822352.2256503,11748,1678822352,224034068,aquila2/os_imu,0.0,0.0,0.0,0.0,-1.0,-1.0,-1.0,-1.0,-1.0,-1.0,-1.0,-1.0,-1.0,-0.02077265650261806,-0.001331580545039619,0.003062635253591124,0.0006,0.0,0.0,0.0,0.0006,0.0,0.0,0.0,0.0006,0.4740519287109375,-0.086191259765625,9.651026892089844,0.01,0.0,0.0,0.0,0.01,0.0,0.0,0.0,0.01
1678822352.2350588,11749,1678822352,234034205,aquila2/os_imu,0.0,0.0,0.0,0.0,-1.0,-1.0,-1.0,-1.0,-1.0,-1.0,-1.0,-1.0,-1.0,-0.015579492376963544,0.012250541014364496,-0.0022636869265673524,0.0006,0.0,0.0,0.0,0.0006,0.0,0.0,0.0,0.0006,0.1771709228515625,-0.63206923828125,9.78031378173828,0.01,0.0,0.0,0.0,0.01,0.0,0.0,0.0,0.01
1678822352.2459235,11750,1678822352,244040153,aquila2/os_imu,0.0,0.0,0.0,0.0,-1.0,-1.0,-1.0,-1.0,-1.0,-1.0,-1.0,-1.0,-1.0,-0.003062635253591124,-0.00972053797878922,0.0006657902725198095,0.0006,0.0,0.0,0.0,0.0006,0.0,0.0,0.0,0.0006,0.19393033447265623,-0.6272808349609375,10.072406384277343,0.01,0.0,0.0,0.0,0.01,0.0,0.0,0.0,0.01
1678822352.2552667,11751,1678822352,254054007,aquila2/os_imu,0.0,0.0,0.0,0.0,-1.0,-1.0,-1.0,-1.0,-1.0,-1.0,-1.0,-1.0,-1.0,0.0035952674716069714,0.003994741635118857,0.01038632825130903,0.0006,0.0,0.0,0.0,0.0006,0.0,0.0,0.0,0.0006,0.29927520751953124,-0.17238251953125,9.689334118652344,0.01,0.0,0.0,0.0,0.01,0.0,0.0,0.0,0.01
1678822352.2646484,11752,1678822352,264053915,aquila2/os_imu,0.0,0.0,0.0,0.0,-1.0,-1.0,-1.0,-1.0,-1.0,-1.0,-1.0,-1.0,-1.0,-0.007989483270237714,-0.009853696033293181,0.0002663161090079238,0.0006,0.0,0.0,0.0,0.0006,0.0,0.0,0.0,0.0006,0.08858546142578125,-0.062249243164062495,9.87608184814453,0.01,0.0,0.0,0.0,0.01,0.0,0.0,0.0,0.01
1678822352.2755427,11753,1678822352,274060166,aquila2/os_imu,0.0,0.0,0.0,0.0,-1.0,-1.0,-1.0,-1.0,-1.0,-1.0,-1.0,-1.0,-1.0,-0.023968449810713145,0.0005326322180158476,0.003728425526110933,0.0006,0.0,0.0,0.0,0.0006,0.0,0.0,0.0,0.0006,0.33039982910156246,0.1867477294921875,9.87608184814453,0.01,0.0,0.0,0.0,0.01,0.0,0.0,0.0,0.01
1678822352.285101,11754,1678822352,284060449,aquila2/os_imu,0.0,0.0,0.0,0.0,-1.0,-1.0,-1.0,-1.0,-1.0,-1.0,-1.0,-1.0,-1.0,-0.01597896654047543,-0.008921589651765448,0.004127899689622819,0.0006,0.0,0.0,0.0,0.0006,0.0,0.0,0.0,0.0006,0.35194764404296874,-0.40462008056640625,9.847351428222655,0.01,0.0,0.0,0.0,0.01,0.0,0.0,0.0,0.01
1678822352.2959752,11755,1678822352,294073734,aquila2/os_imu,0.0,0.0,0.0,0.0,-1.0,-1.0,-1.0,-1.0,-1.0,-1.0,-1.0,-1.0,-1.0,0.0010652644360316951,0.009321063815277333,0.0003994741635118857,0.0006,0.0,0.0,0.0,0.0006,0.0,0.0,0.0,0.0006,0.2657563842773437,-0.47884033203125,10.01733974609375,0.01,0.0,0.0,0.0,0.01,0.0,0.0,0.0,0.01
1678822352.3054352,11756,1678822352,304073519,aquila2/os_imu,0.0,0.0,0.0,0.0,-1.0,-1.0,-1.0,-1.0,-1.0,-1.0,-1.0,-1.0,-1.0,0.021438446775137867,-0.008255799379245638,0.0,0.0006,0.0,0.0,0.0,0.0006,0.0,0.0,0.0,0.0006,0.10295067138671875,-0.36391865234375,9.689334118652344,0.01,0.0,0.0,0.0,0.01,0.0,0.0,0.0,0.01
1678822352.3148117,11757,1678822352,314080356,aquila2/os_imu,0.0,0.0,0.0,0.0,-1.0,-1.0,-1.0,-1.0,-1.0,-1.0,-1.0,-1.0,-1.0,-0.0009321063815277333,-0.004394215798630743,-0.001731054708551505,0.0006,0.0,0.0,0.0,0.0006,0.0,0.0,0.0,0.0006,0.25139117431640623,-0.06464344482421874,9.981426721191406,0.01,0.0,0.0,0.0,0.01,0.0,0.0,0.0,0.01
1678822352.3257658,11758,1678822352,324093098,aquila2/os_imu,0.0,0.0,0.0,0.0,-1.0,-1.0,-1.0,-1.0,-1.0,-1.0,-1.0,-1.0,-1.0,-0.014913702104443732,0.007456851052221866,0.005725796343670361,0.0006,0.0,0.0,0.0,0.0006,0.0,0.0,0.0,0.0006,0.34715924072265625,-0.08858546142578125,9.859322436523437,0.01,0.0,0.0,0.0,0.01,0.0,0.0,0.0,0.01
1678822352.3349605,11759,1678822352,334093233,aquila2/os_imu,0.0,0.0,0.0,0.0,-1.0,-1.0,-1.0,-1.0,-1.0,-1.0,-1.0,-1.0,-1.0,-0.015446334322459582,0.008522115488253561,0.0003994741635118857,0.0006,0.0,0.0,0.0,0.0006,0.0,0.0,0.0,0.0006,0.21787235107421873,-0.6440402465820312,9.986215124511718,0.01,0.0,0.0,0.0,0.01,0.0,0.0,0.0,0.01
1678822352.3460615,11760,1678822352,344101247,aquila2/os_imu,0.0,0.0,0.0,0.0,-1.0,-1.0,-1.0,-1.0,-1.0,-1.0,-1.0,-1.0,-1.0,0.001331580545039619,-0.004527373853134705,-0.0029294771990871615,0.0006,0.0,0.0,0.0,0.0006,0.0,0.0,0.0,0.0006,0.26815058593749996,-0.6847416748046875,10.20169327392578,0.01,0.0,0.0,0.0,0.01,0.0,0.0,0.0,0.01
1678822352.3553405,11761,1678822352,354101183,aquila2/os_imu,0.0,0.0,0.0,0.0,-1.0,-1.0,-1.0,-1.0,-1.0,-1.0,-1.0,-1.0,-1.0,0.005992112452678286,-0.020639498448114094,0.00625842856168621,0.0006,0.0,0.0,0.0,0.0006,0.0,0.0,0.0,0.0006,0.2059013427734375,-0.3591302490234375,9.70369932861328,0.01,0.0,0.0,0.0,0.01,0.0,0.0,0.0,0.01
1678822352.3646488,11762,1678822352,364112947,aquila2/os_imu,0.0,0.0,0.0,0.0,-1.0,-1.0,-1.0,-1.0,-1.0,-1.0,-1.0,-1.0,-1.0,-0.0023968449810713144,-0.006125270507182248,-0.003728425526110933,0.0006,0.0,0.0,0.0,0.0006,0.0,0.0,0.0,0.0006,0.055066638183593745,-0.17477672119140625,10.127473022460936,0.01,0.0,0.0,0.0,0.01,0.0,0.0,0.0,0.01
1678822352.375703,11763,1678822352,374121603,aquila2/os_imu,0.0,0.0,0.0,0.0,-1.0,-1.0,-1.0,-1.0,-1.0,-1.0,-1.0,-1.0,-1.0,-0.019707392066586362,0.0011984224905356572,-0.0031957933080950856,0.0006,0.0,0.0,0.0,0.0006,0.0,0.0,0.0,0.0006,0.4572925170898437,0.02154781494140625,9.95987890625,0.01,0.0,0.0,0.0,0.01,0.0,0.0,0.0,0.01
1678822352.3850758,11764,1678822352,384121493,aquila2/os_imu,0.0,0.0,0.0,0.0,-1.0,-1.0,-1.0,-1.0,-1.0,-1.0,-1.0,-1.0,-1.0,-0.017710021249026934,0.00346210941710301,0.0083889574337496,0.0006,0.0,0.0,0.0,0.0006,0.0,0.0,0.0,0.0006,0.3495534423828125,-0.3399766357421875,9.911994873046874,0.01,0.0,0.0,0.0,0.01,0.0,0.0,0.0,0.01
1678822352.3959599,11765,1678822352,394132653,aquila2/os_imu,0.0,0.0,0.0,0.0,-1.0,-1.0,-1.0,-1.0,-1.0,-1.0,-1.0,-1.0,-1.0,-0.0021305288720633903,-0.0001331580545039619,-0.0007989483270237714,0.0006,0.0,0.0,0.0,0.0006,0.0,0.0,0.0,0.0006,0.36152445068359373,-0.5961562133789062,10.01015714111328,0.01,0.0,0.0,0.0,0.01,0.0,0.0,0.0,0.01
1678822352.4054677,11766,1678822352,404132052,aquila2/os_imu,0.0,0.0,0.0,0.0,-1.0,-1.0,-1.0,-1.0,-1.0,-1.0,-1.0,-1.0,-1.0,0.016378440703987314,-0.01038632825130903,0.0042610577441267805,0.0006,0.0,0.0,0.0,0.0006,0.0,0.0,0.0,0.0006,0.2609679809570312,-0.062249243164062495,9.694122521972655,0.01,0.0,0.0,0.0,0.01,0.0,0.0,0.0,0.01
1678822352.414847,11767,1678822352,414141791,aquila2/os_imu,0.0,0.0,0.0,0.0,-1.0,-1.0,-1.0,-1.0,-1.0,-1.0,-1.0,-1.0,-1.0,0.0022636869265673524,-0.018375811521546742,0.0021305288720633903,0.0006,0.0,0.0,0.0,0.0006,0.0,0.0,0.0,0.0006,0.277727392578125,-0.15322890625,9.751583361816406,0.01,0.0,0.0,0.0,0.01,0.0,0.0,0.0,0.01
1678822352.4257004,11768,1678822352,424152445,aquila2/os_imu,0.0,0.0,0.0,0.0,-1.0,-1.0,-1.0,-1.0,-1.0,-1.0,-1.0,-1.0,-1.0,-0.021971078993153714,-0.006791060779702058,0.0033289513625990473,0.0006,0.0,0.0,0.0,0.0006,0.0,0.0,0.0,0.0006,0.4261678955078125,0.0143652099609375,9.765948571777344,0.01,0.0,0.0,0.0,0.01,0.0,0.0,0.0,0.01
1678822352.4351654,11769,1678822352,434152267,aquila2/os_imu,0.0,0.0,0.0,0.0,-1.0,-1.0,-1.0,-1.0,-1.0,-1.0,-1.0,-1.0,-1.0,-0.009587379924285258,-0.0003994741635118857,0.004127899689622819,0.0006,0.0,0.0,0.0,0.0006,0.0,0.0,0.0,0.0006,0.13407529296874998,-0.6057330200195312,9.967061511230469,0.01,0.0,0.0,0.0,0.01,0.0,0.0,0.0,0.01
1678822352.4460616,11770,1678822352,444162159,aquila2/os_imu,0.0,0.0,0.0,0.0,-1.0,-1.0,-1.0,-1.0,-1.0,-1.0,-1.0,-1.0,-1.0,0.0038615835806148956,-0.005326322180158476,-0.004127899689622819,0.0006,0.0,0.0,0.0,0.0006,0.0,0.0,0.0,0.0006,0.23223756103515625,-0.5578489868164063,9.969455712890625,0.01,0.0,0.0,0.0,0.01,0.0,0.0,0.0,0.01
1678822352.4553196,11771,1678822352,454162203,aquila2/os_imu,0.0,0.0,0.0,0.0,-1.0,-1.0,-1.0,-1.0,-1.0,-1.0,-1.0,-1.0,-1.0,0.013049489341388266,-0.019707392066586362,0.005725796343670361,0.0006,0.0,0.0,0.0,0.0006,0.0,0.0,0.0,0.0006,0.0526724365234375,-0.411802685546875,9.727641345214844,0.01,0.0,0.0,0.0,0.01,0.0,0.0,0.0,0.01
1678822352.4663277,11772,1678822352,464171965,aquila2/os_imu,0.0,0.0,0.0,0.0,-1.0,-1.0,-1.0,-1.0,-1.0,-1.0,-1.0,-1.0,-1.0,0.003994741635118857,-0.011451592687340723,0.01038632825130903,0.0006,0.0,0.0,0.0,0.0006,0.0,0.0,0.0,0.0006,0.011971008300781249,0.031124621582031248,10.060435375976562,0.01,0.0,0.0,0.0,0.01,0.0,0.0,0.0,0.01
1678822352.47577,11773,1678822352,474182448,aquila2/os_imu,0.0,0.0,0.0,0.0,-1.0,-1.0,-1.0,-1.0,-1.0,-1.0,-1.0,-1.0,-1.0,-0.011851066850852611,-0.018642127630554665,0.003728425526110933,0.0006,0.0,0.0,0.0,0.0006,0.0,0.0,0.0,0.0006,0.35194764404296874,-0.105344873046875,9.935936889648437,0.01,0.0,0.0,0.0,0.01,0.0,0.0,0.0,0.01
1678822352.485249,11774,1678822352,484182497,aquila2/os_imu,0.0,0.0,0.0,0.0,-1.0,-1.0,-1.0,-1.0,-1.0,-1.0,-1.0,-1.0,-1.0,-0.023835291756209184,-0.005060006071150552,0.005326322180158476,0.0006,0.0,0.0,0.0,0.0006,0.0,0.0,0.0,0.0006,0.28012159423828126,-0.6009446166992187,9.686939916992188,0.01,0.0,0.0,0.0,0.01,0.0,0.0,0.0,0.01
1678822352.4960732,11775,1678822352,494191707,aquila2/os_imu,0.0,0.0,0.0,0.0,-1.0,-1.0,-1.0,-1.0,-1.0,-1.0,-1.0,-1.0,-1.0,-0.001731054708551505,-0.0009321063815277333,-0.004394215798630743,0.0006,0.0,0.0,0.0,0.0006,0.0,0.0,0.0,0.0006,0.3280056274414062,-0.5530605834960938,9.87608184814453,0.01,0.0,0.0,0.0,0.01,0.0,0.0,0.0,0.01
1678822352.5055134,11776,1678822352,504191569,aquila2/os_imu,0.0,0.0,0.0,0.0,-1.0,-1.0,-1.0,-1.0,-1.0,-1.0,-1.0,-1.0,-1.0,0.013315805450396189,0.0010652644360316951,0.0038615835806148956,0.0006,0.0,0.0,0.0,0.0006,0.0,0.0,0.0,0.0006,0.3711012573242187,-0.32082302246093747,9.847351428222655,0.01,0.0,0.0,0.0,0.01,0.0,0.0,0.0,0.01
1678822352.5149577,11777,1678822352,514202811,aquila2/os_imu,0.0,0.0,0.0,0.0,-1.0,-1.0,-1.0,-1.0,-1.0,-1.0,-1.0,-1.0,-1.0,-0.003062635253591124,-0.005858954398174323,0.0,0.0006,0.0,0.0,0.0,0.0006,0.0,0.0,0.0,0.0006,0.2537853759765625,-0.05985504150390625,9.923965881347655,0.01,0.0,0.0,0.0,0.01,0.0,0.0,0.0,0.01
1678822352.5257905,11778,1678822352,524211107,aquila2/os_imu,0.0,0.0,0.0,0.0,-1.0,-1.0,-1.0,-1.0,-1.0,-1.0,-1.0,-1.0,-1.0,-0.019174759848570515,0.002530003035575276,0.0055926382891664,0.0006,0.0,0.0,0.0,0.0006,0.0,0.0,0.0,0.0006,0.39264907226562495,0.2346317626953125,9.753977563476562,0.01,0.0,0.0,0.0,0.01,0.0,0.0,0.0,0.01
1678822352.5351431,11779,1678822352,534211265,aquila2/os_imu,0.0,0.0,0.0,0.0,-1.0,-1.0,-1.0,-1.0,-1.0,-1.0,-1.0,-1.0,-1.0,-0.013182647395892227,-0.005459480234662438,0.0049268480166465905,0.0006,0.0,0.0,0.0,0.0006,0.0,0.0,0.0,0.0006,0.45968671875,-0.26336218261718747,10.108319409179687,0.01,0.0,0.0,0.0,0.01,0.0,0.0,0.0,0.01
1678822352.5462375,11780,1678822352,544223175,aquila2/os_imu,0.0,0.0,0.0,0.0,-1.0,-1.0,-1.0,-1.0,-1.0,-1.0,-1.0,-1.0,-1.0,0.0023968449810713144,-0.0038615835806148956,0.007190534943213943,0.0006,0.0,0.0,0.0,0.0006,0.0,0.0,0.0,0.0006,0.3806780639648437,-0.603338818359375,10.103531005859374,0.01,0.0,0.0,0.0,0.01,0.0,0.0,0.0,0.01
1678822352.5554972,11781,1678822352,554223205,aquila2/os_imu,0.0,0.0,0.0,0.0,-1.0,-1.0,-1.0,-1.0,-1.0,-1.0,-1.0,-1.0,-1.0,0.009454221869781294,-0.00346210941710301,0.0027963191445832,0.0006,0.0,0.0,0.0,0.0006,0.0,0.0,0.0,0.0006,0.05746083984375,-0.2609679809570312,9.548076220703125,0.01,0.0,0.0,0.0,0.01,0.0,0.0,0.0,0.01
1678822352.564772,11782,1678822352,564230994,aquila2/os_imu,0.0,0.0,0.0,0.0,-1.0,-1.0,-1.0,-1.0,-1.0,-1.0,-1.0,-1.0,-1.0,0.004793689962142629,-0.01611212459497939,-0.0038615835806148956,0.0006,0.0,0.0,0.0,0.0006,0.0,0.0,0.0,0.0006,0.33758243408203126,-0.16280571289062498,10.046070166015625,0.01,0.0,0.0,0.0,0.01,0.0,0.0,0.0,0.01
1678822352.575801,11783,1678822352,574230926,aquila2/os_imu,0.0,0.0,0.0,0.0,-1.0,-1.0,-1.0,-1.0,-1.0,-1.0,-1.0,-1.0,-1.0,-0.016644756812995237,-0.005992112452678286,0.00346210941710301,0.0006,0.0,0.0,0.0,0.0006,0.0,0.0,0.0,0.0006,0.3136404174804687,-0.09816226806640624,9.911994873046874,0.01,0.0,0.0,0.0,0.01,0.0,0.0,0.0,0.01
1678822352.5852373,11784,1678822352,584243505,aquila2/os_imu,0.0,0.0,0.0,0.0,-1.0,-1.0,-1.0,-1.0,-1.0,-1.0,-1.0,-1.0,-1.0,-0.012117382959860534,0.001331580545039619,0.0018642127630554665,0.0006,0.0,0.0,0.0,0.0006,0.0,0.0,0.0,0.0006,0.143652099609375,-0.6727706665039062,9.828197814941406,0.01,0.0,0.0,0.0,0.01,0.0,0.0,0.0,0.01
1678822352.5960882,11785,1678822352,594250782,aquila2/os_imu,0.0,0.0,0.0,0.0,-1.0,-1.0,-1.0,-1.0,-1.0,-1.0,-1.0,-1.0,-1.0,-0.0005326322180158476,0.0006657902725198095,-0.005060006071150552,0.0006,0.0,0.0,0.0,0.0006,0.0,0.0,0.0,0.0006,0.1771709228515625,-0.6200982299804687,9.861716638183593,0.01,0.0,0.0,0.0,0.01,0.0,0.0,0.0,0.01
1678822352.6055565,11786,1678822352,604250561,aquila2/os_imu,0.0,0.0,0.0,0.0,-1.0,-1.0,-1.0,-1.0,-1.0,-1.0,-1.0,-1.0,-1.0,0.019973708175594285,-0.019307917903074477,0.010519486305812991,0.0006,0.0,0.0,0.0,0.0006,0.0,0.0,0.0,0.0006,0.19632453613281248,-0.44532150878906246,9.91438907470703,0.01,0.0,0.0,0.0,0.01,0.0,0.0,0.0,0.01
1678822352.614886,11787,1678822352,614263423,aquila2/os_imu,0.0,0.0,0.0,0.0,-1.0,-1.0,-1.0,-1.0,-1.0,-1.0,-1.0,-1.0,-1.0,-0.0015978966540475428,-0.019307917903074477,0.005725796343670361,0.0006,0.0,0.0,0.0,0.0006,0.0,0.0,0.0,0.0006,0.19153613281249998,0.09816226806640624,9.892841259765625,0.01,0.0,0.0,0.0,0.01,0.0,0.0,0.0,0.01
1678822352.6259315,11788,1678822352,624263630,aquila2/os_imu,0.0,0.0,0.0,0.0,-1.0,-1.0,-1.0,-1.0,-1.0,-1.0,-1.0,-1.0,-1.0,-0.022636869265673522,-0.0031957933080950856,0.00692421883420602,0.0006,0.0,0.0,0.0,0.0006,0.0,0.0,0.0,0.0006,0.3136404174804687,0.023942016601562498,9.5001921875,0.01,0.0,0.0,0.0,0.01,0.0,0.0,0.0,0.01
1678822352.6352253,11789,1678822352,634270243,aquila2/os_imu,0.0,0.0,0.0,0.0,-1.0,-1.0,-1.0,-1.0,-1.0,-1.0,-1.0,-1.0,-1.0,-0.012916331286884304,0.008788431597261486,0.0011984224905356572,0.0006,0.0,0.0,0.0,0.0006,0.0,0.0,0.0,0.0006,0.33758243408203126,-0.16280571289062498,10.149020837402343,0.01,0.0,0.0,0.0,0.01,0.0,0.0,0.0,0.01
1678822352.646226,11790,1678822352,644284182,aquila2/os_imu,0.0,0.0,0.0,0.0,-1.0,-1.0,-1.0,-1.0,-1.0,-1.0,-1.0,-1.0,-1.0,0.0005326322180158476,0.0049268480166465905,-0.0014647385995435807,0.0006,0.0,0.0,0.0,0.0006,0.0,0.0,0.0,0.0006,0.2561795776367187,-0.5913678100585937,9.97903251953125,0.01,0.0,0.0,0.0,0.01,0.0,0.0,0.0,0.01
1678822352.6554866,11791,1678822352,654284191,aquila2/os_imu,0.0,0.0,0.0,0.0,-1.0,-1.0,-1.0,-1.0,-1.0,-1.0,-1.0,-1.0,-1.0,0.019041601794066554,-0.022104237047657675,0.012250541014364496,0.0006,0.0,0.0,0.0,0.0006,0.0,0.0,0.0,0.0006,0.19153613281249998,-0.239420166015625,9.545682019042967,0.01,0.0,0.0,0.0,0.01,0.0,0.0,0.0,0.01
1678822352.664966,11792,1678822352,664289990,aquila2/os_imu,0.0,0.0,0.0,0.0,-1.0,-1.0,-1.0,-1.0,-1.0,-1.0,-1.0,-1.0,-1.0,-0.0007989483270237714,-0.014247911831923924,0.0005326322180158476,0.0006,0.0,0.0,0.0,0.0006,0.0,0.0,0.0,0.0006,0.40940848388671874,-0.086191259765625,10.01015714111328,0.01,0.0,0.0,0.0,0.01,0.0,0.0,0.0,0.01
1678822352.6758893,11793,1678822352,674289901,aquila2/os_imu,0.0,0.0,0.0,0.0,-1.0,-1.0,-1.0,-1.0,-1.0,-1.0,-1.0,-1.0,-1.0,-0.018775285685058627,-0.0022636869265673524,0.004394215798630743,0.0006,0.0,0.0,0.0,0.0006,0.0,0.0,0.0,0.0006,0.16519991455078123,-0.02633621826171875,9.91438907470703,0.01,0.0,0.0,0.0,0.01,0.0,0.0,0.0,0.01
1678822352.685325,11794,1678822352,684304499,aquila2/os_imu,0.0,0.0,0.0,0.0,-1.0,-1.0,-1.0,-1.0,-1.0,-1.0,-1.0,-1.0,-1.0,-0.013049489341388266,0.0027963191445832,0.0042610577441267805,0.0006,0.0,0.0,0.0,0.0006,0.0,0.0,0.0,0.0006,0.1388636962890625,-0.5434837768554687,9.749189160156249,0.01,0.0,0.0,0.0,0.01,0.0,0.0,0.0,0.01
1678822352.6960769,11795,1678822352,694309725,aquila2/os_imu,0.0,0.0,0.0,0.0,-1.0,-1.0,-1.0,-1.0,-1.0,-1.0,-1.0,-1.0,-1.0,0.002663161090079238,-0.0049268480166465905,0.0023968449810713144,0.0006,0.0,0.0,0.0,0.0006,0.0,0.0,0.0,0.0006,0.13407529296874998,-0.7565677246093749,9.93354268798828,0.01,0.0,0.0,0.0,0.01,0.0,0.0,0.0,0.01
1678822352.7056808,11796,1678822352,704309561,aquila2/os_imu,0.0,0.0,0.0,0.0,-1.0,-1.0,-1.0,-1.0,-1.0,-1.0,-1.0,-1.0,-1.0,0.008522115488253561,-0.0073236929977179045,0.0005326322180158476,0.0006,0.0,0.0,0.0,0.0006,0.0,0.0,0.0,0.0006,-0.062249243164062495,-0.316034619140625,9.86411083984375,0.01,0.0,0.0,0.0,0.01,0.0,0.0,0.0,0.01
1678822352.71499,11797,1678822352,714324799,aquila2/os_imu,0.0,0.0,0.0,0.0,-1.0,-1.0,-1.0,-1.0,-1.0,-1.0,-1.0,-1.0,-1.0,-0.007456851052221866,-0.006524744670694133,-0.004793689962142629,0.0006,0.0,0.0,0.0,0.0006,0.0,0.0,0.0,0.0006,0.09576806640624999,-0.086191259765625,9.97184991455078,0.01,0.0,0.0,0.0,0.01,0.0,0.0,0.0,0.01
1678822352.7260237,11798,1678822352,724324970,aquila2/os_imu,0.0,0.0,0.0,0.0,-1.0,-1.0,-1.0,-1.0,-1.0,-1.0,-1.0,-1.0,-1.0,-0.01731054708551505,-0.010918960469324876,0.007190534943213943,0.0006,0.0,0.0,0.0,0.0006,0.0,0.0,0.0,0.0006,0.35194764404296874,0.00239420166015625,9.595960253906249,0.01,0.0,0.0,0.0,0.01,0.0,0.0,0.0,0.01
1678822352.7352324,11799,1678822352,734329251,aquila2/os_imu,0.0,0.0,0.0,0.0,-1.0,-1.0,-1.0,-1.0,-1.0,-1.0,-1.0,-1.0,-1.0,-0.015712650431467506,-0.005193164125654515,0.003994741635118857,0.0006,0.0,0.0,0.0,0.0006,0.0,0.0,0.0,0.0006,0.3591302490234375,-0.37828386230468747,10.091559997558592,0.01,0.0,0.0,0.0,0.01,0.0,0.0,0.0,0.01
1678822352.7462006,11800,1678822352,744345073,aquila2/os_imu,0.0,0.0,0.0,0.0,-1.0,-1.0,-1.0,-1.0,-1.0,-1.0,-1.0,-1.0,-1.0,0.006524744670694133,-0.011451592687340723,0.0,0.0006,0.0,0.0,0.0,0.0006,0.0,0.0,0.0,0.0006,0.1292868896484375,-0.7326257080078125,10.292672937011718,0.01,0.0,0.0,0.0,0.01,0.0,0.0,0.0,0.01
1678822352.7555463,11801,1678822352,754345167,aquila2/os_imu,0.0,0.0,0.0,0.0,-1.0,-1.0,-1.0,-1.0,-1.0,-1.0,-1.0,-1.0,-1.0,0.01691107292200316,-0.02343581759269729,0.005459480234662438,0.0006,0.0,0.0,0.0,0.0006,0.0,0.0,0.0,0.0006,0.16041151123046873,-0.1867477294921875,9.555258825683593,0.01,0.0,0.0,0.0,0.01,0.0,0.0,0.0,0.01
1678822352.7649276,11802,1678822352,764348964,aquila2/os_imu,0.0,0.0,0.0,0.0,-1.0,-1.0,-1.0,-1.0,-1.0,-1.0,-1.0,-1.0,-1.0,-0.004127899689622819,-0.003994741635118857,0.0005326322180158476,0.0006,0.0,0.0,0.0,0.0006,0.0,0.0,0.0,0.0006,0.4429273071289062,-0.08379705810546874,10.120290417480469,0.01,0.0,0.0,0.0,0.01,0.0,0.0,0.0,0.01
1678822352.775825,11803,1678822352,774348606,aquila2/os_imu,0.0,0.0,0.0,0.0,-1.0,-1.0,-1.0,-1.0,-1.0,-1.0,-1.0,-1.0,-1.0,-0.019174759848570515,-0.014247911831923924,0.0035952674716069714,0.0006,0.0,0.0,0.0,0.0006,0.0,0.0,0.0,0.0006,0.316034619140625,0.12210428466796874,9.923965881347655,0.01,0.0,0.0,0.0,0.01,0.0,0.0,0.0,0.01
1678822352.7853835,11804,1678822352,784365473,aquila2/os_imu,0.0,0.0,0.0,0.0,-1.0,-1.0,-1.0,-1.0,-1.0,-1.0,-1.0,-1.0,-1.0,-0.01944107595757844,0.017710021249026934,0.0002663161090079238,0.0006,0.0,0.0,0.0,0.0006,0.0,0.0,0.0,0.0006,0.29448680419921874,-0.37828386230468747,9.900023864746093,0.01,0.0,0.0,0.0,0.01,0.0,0.0,0.0,0.01
1678822352.7962275,11805,1678822352,794365577,aquila2/os_imu,0.0,0.0,0.0,0.0,-1.0,-1.0,-1.0,-1.0,-1.0,-1.0,-1.0,-1.0,-1.0,0.004127899689622819,-0.0002663161090079238,-0.0021305288720633903,0.0006,0.0,0.0,0.0,0.0006,0.0,0.0,0.0,0.0006,0.16519991455078123,-0.6560112548828124,10.058041174316406,0.01,0.0,0.0,0.0,0.01,0.0,0.0,0.0,0.01
1678822352.8056808,11806,1678822352,804368553,aquila2/os_imu,0.0,0.0,0.0,0.0,-1.0,-1.0,-1.0,-1.0,-1.0,-1.0,-1.0,-1.0,-1.0,0.015579492376963544,-0.0073236929977179045,0.0027963191445832,0.0006,0.0,0.0,0.0,0.0006,0.0,0.0,0.0,0.0006,0.086191259765625,-0.4165910888671875,9.945513696289062,0.01,0.0,0.0,0.0,0.01,0.0,0.0,0.0,0.01
1678822352.8150377,11807,1678822352,814385789,aquila2/os_imu,0.0,0.0,0.0,0.0,-1.0,-1.0,-1.0,-1.0,-1.0,-1.0,-1.0,-1.0,-1.0,-0.003728425526110933,-0.007989483270237714,0.0023968449810713144,0.0006,0.0,0.0,0.0,0.0006,0.0,0.0,0.0,0.0006,0.1005564697265625,-0.08379705810546874,9.725247143554688,0.01,0.0,0.0,0.0,0.01,0.0,0.0,0.0,0.01
1678822352.8259418,11808,1678822352,824385885,aquila2/os_imu,0.0,0.0,0.0,0.0,-1.0,-1.0,-1.0,-1.0,-1.0,-1.0,-1.0,-1.0,-1.0,-0.0167779148674992,-0.007456851052221866,0.010253170196805066,0.0006,0.0,0.0,0.0,0.0006,0.0,0.0,0.0,0.0006,0.5027823486328125,-0.3112462158203125,9.751583361816406,0.01,0.0,0.0,0.0,0.01,0.0,0.0,0.0,0.01
1678822352.835272,11809,1678822352,834387791,aquila2/os_imu,0.0,0.0,0.0,0.0,-1.0,-1.0,-1.0,-1.0,-1.0,-1.0,-1.0,-1.0,-1.0,-0.005725796343670361,0.005459480234662438,0.004127899689622819,0.0006,0.0,0.0,0.0,0.0006,0.0,0.0,0.0,0.0006,0.2537853759765625,-0.70868369140625,9.967061511230469,0.01,0.0,0.0,0.0,0.01,0.0,0.0,0.0,0.01
1678822352.8462152,11810,1678822352,844388214,aquila2/os_imu,0.0,0.0,0.0,0.0,-1.0,-1.0,-1.0,-1.0,-1.0,-1.0,-1.0,-1.0,-1.0,-0.002530003035575276,0.0009321063815277333,-0.0007989483270237714,0.0006,0.0,0.0,0.0,0.0006,0.0,0.0,0.0,0.0006,0.08140285644531249,-0.8595183959960937,10.007762939453125,0.01,0.0,0.0,0.0,0.01,0.0,0.0,0.0,0.01
1678822352.8555171,11811,1678822352,854406228,aquila2/os_imu,0.0,0.0,0.0,0.0,-1.0,-1.0,-1.0,-1.0,-1.0,-1.0,-1.0,-1.0,-1.0,0.014381069886427886,-0.0021305288720633903,0.0014647385995435807,0.0006,0.0,0.0,0.0,0.0006,0.0,0.0,0.0,0.0006,0.17477672119140625,-0.4525041137695312,9.82580361328125,0.01,0.0,0.0,0.0,0.01,0.0,0.0,0.0,0.01
1678822352.8650765,11812,1678822352,864407965,aquila2/os_imu,0.0,0.0,0.0,0.0,-1.0,-1.0,-1.0,-1.0,-1.0,-1.0,-1.0,-1.0,-1.0,-0.0006657902725198095,-0.01265001517787638,-0.0006657902725198095,0.0006,0.0,0.0,0.0,0.0006,0.0,0.0,0.0,0.0006,0.23702596435546874,-0.1867477294921875,10.153809240722655,0.01,0.0,0.0,0.0,0.01,0.0,0.0,0.0,0.01
1678822352.8758366,11813,1678822352,874407863,aquila2/os_imu,0.0,0.0,0.0,0.0,-1.0,-1.0,-1.0,-1.0,-1.0,-1.0,-1.0,-1.0,-1.0,-0.013981595722916,-0.01251685712337242,0.0006657902725198095,0.0006,0.0,0.0,0.0,0.0006,0.0,0.0,0.0,0.0006,0.3184288208007812,0.0383072265625,9.94072529296875,0.01,0.0,0.0,0.0,0.01,0.0,0.0,0.0,0.01
1678822352.8853989,11814,1678822352,884426127,aquila2/os_imu,0.0,0.0,0.0,0.0,-1.0,-1.0,-1.0,-1.0,-1.0,-1.0,-1.0,-1.0,-1.0,-0.015712650431467506,0.006524744670694133,0.003062635253591124,0.0006,0.0,0.0,0.0,0.0006,0.0,0.0,0.0,0.0006,0.29448680419921874,-0.37828386230468747,9.744400756835937,0.01,0.0,0.0,0.0,0.01,0.0,0.0,0.0,0.01
1678822352.8961673,11815,1678822352,894426641,aquila2/os_imu,0.0,0.0,0.0,0.0,-1.0,-1.0,-1.0,-1.0,-1.0,-1.0,-1.0,-1.0,-1.0,0.001331580545039619,-0.008921589651765448,0.003994741635118857,0.0006,0.0,0.0,0.0,0.0006,0.0,0.0,0.0,0.0006,0.201112939453125,-0.6464344482421874,9.909600671386718,0.01,0.0,0.0,0.0,0.01,0.0,0.0,0.0,0.01
1678822352.9057043,11816,1678822352,904427565,aquila2/os_imu,0.0,0.0,0.0,0.0,-1.0,-1.0,-1.0,-1.0,-1.0,-1.0,-1.0,-1.0,-1.0,0.008921589651765448,-0.0111852765783328,0.005725796343670361,0.0006,0.0,0.0,0.0,0.0006,0.0,0.0,0.0,0.0006,0.24660277099609373,-0.20350714111328125,9.667786303710937,0.01,0.0,0.0,0.0,0.01,0.0,0.0,0.0,0.01
1678822352.9149182,11817,1678822352,914446392,aquila2/os_imu,0.0,0.0,0.0,0.0,-1.0,-1.0,-1.0,-1.0,-1.0,-1.0,-1.0,-1.0,-1.0,-0.004660531907638666,-0.014114753777419962,0.008522115488253561,0.0006,0.0,0.0,0.0,0.0006,0.0,0.0,0.0,0.0006,0.3112462158203125,-0.06943184814453125,9.878476049804688,0.01,0.0,0.0,0.0,0.01,0.0,0.0,0.0,0.01
1678822352.9259953,11818,1678822352,924446948,aquila2/os_imu,0.0,0.0,0.0,0.0,-1.0,-1.0,-1.0,-1.0,-1.0,-1.0,-1.0,-1.0,-1.0,-0.022903185374681445,-0.002530003035575276,0.006524744670694133,0.0006,0.0,0.0,0.0,0.0006,0.0,0.0,0.0,0.0006,0.411802685546875,-0.0430956298828125,9.80665,0.01,0.0,0.0,0.0,0.01,0.0,0.0,0.0,0.01
1678822352.9352927,11819,1678822352,934447263,aquila2/os_imu,0.0,0.0,0.0,0.0,-1.0,-1.0,-1.0,-1.0,-1.0,-1.0,-1.0,-1.0,-1.0,-0.012250541014364496,-0.0014647385995435807,0.0055926382891664,0.0006,0.0,0.0,0.0,0.0006,0.0,0.0,0.0,0.0006,0.22505495605468748,-0.6392518432617187,9.981426721191406,0.01,0.0,0.0,0.0,0.01,0.0,0.0,0.0,0.01
1678822352.9463263,11820,1678822352,944447212,aquila2/os_imu,0.0,0.0,0.0,0.0,-1.0,-1.0,-1.0,-1.0,-1.0,-1.0,-1.0,-1.0,-1.0,0.0011984224905356572,-0.0019973708175594286,-0.001331580545039619,0.0006,0.0,0.0,0.0,0.0006,0.0,0.0,0.0,0.0006,0.11731588134765625,-0.7876923461914062,10.098742602539062,0.01,0.0,0.0,0.0,0.01,0.0,0.0,0.0,0.01
1678822352.9555159,11821,1678822352,954467055,aquila2/os_imu,0.0,0.0,0.0,0.0,-1.0,-1.0,-1.0,-1.0,-1.0,-1.0,-1.0,-1.0,-1.0,0.0083889574337496,-0.005459480234662438,-0.003728425526110933,0.0006,0.0,0.0,0.0,0.0006,0.0,0.0,0.0,0.0006,0.16041151123046873,-0.45968671875,9.631873278808593,0.01,0.0,0.0,0.0,0.01,0.0,0.0,0.0,0.01
1678822352.9650908,11822,1678822352,964466599,aquila2/os_imu,0.0,0.0,0.0,0.0,-1.0,-1.0,-1.0,-1.0,-1.0,-1.0,-1.0,-1.0,-1.0,0.0003994741635118857,-0.008921589651765448,0.0021305288720633903,0.0006,0.0,0.0,0.0,0.0006,0.0,0.0,0.0,0.0006,0.07900865478515624,-0.21068974609375,9.852139831542969,0.01,0.0,0.0,0.0,0.01,0.0,0.0,0.0,0.01
1678822352.975974,11823,1678822352,974467465,aquila2/os_imu,0.0,0.0,0.0,0.0,-1.0,-1.0,-1.0,-1.0,-1.0,-1.0,-1.0,-1.0,-1.0,-0.017177389031011087,-0.01265001517787638,0.0,0.0006,0.0,0.0,0.0,0.0006,0.0,0.0,0.0,0.0006,0.32082302246093747,-0.33039982910156246,9.765948571777344,0.01,0.0,0.0,0.0,0.01,0.0,0.0,0.0,0.01
1678822352.9853292,11824,1678822352,984486831,aquila2/os_imu,0.0,0.0,0.0,0.0,-1.0,-1.0,-1.0,-1.0,-1.0,-1.0,-1.0,-1.0,-1.0,-0.017576863194522972,0.013981595722916,0.0023968449810713144,0.0006,0.0,0.0,0.0,0.0006,0.0,0.0,0.0,0.0006,0.3950432739257812,-0.5626373901367188,9.7683427734375,0.01,0.0,0.0,0.0,0.01,0.0,0.0,0.0,0.01
1678822352.9961348,11825,1678822352,994486856,aquila2/os_imu,0.0,0.0,0.0,0.0,-1.0,-1.0,-1.0,-1.0,-1.0,-1.0,-1.0,-1.0,-1.0,0.007989483270237714,0.0015978966540475428,0.0011984224905356572,0.0006,0.0,0.0,0.0,0.0006,0.0,0.0,0.0,0.0006,0.076614453125,-0.4860229370117187,9.751583361816406,0.01,0.0,0.0,0.0,0.01,0.0,0.0,0.0,0.01
1678822353.0055904,11826,1678822353,4487369,aquila2/os_imu,0.0,0.0,0.0,0.0,-1.0,-1.0,-1.0,-1.0,-1.0,-1.0,-1.0,-1.0,-1.0,0.015180018213451656,-0.019307917903074477,0.0021305288720633903,0.0006,0.0,0.0,0.0,0.0006,0.0,0.0,0.0,0.0006,0.2346317626953125,-0.4381389038085937,9.801861596679688,0.01,0.0,0.0,0.0,0.01,0.0,0.0,0.0,0.01
1678822353.0149317,11827,1678822353,14487484,aquila2/os_imu,0.0,0.0,0.0,0.0,-1.0,-1.0,-1.0,-1.0,-1.0,-1.0,-1.0,-1.0,-1.0,-0.012383699068868458,-0.010253170196805066,0.003728425526110933,0.0006,0.0,0.0,0.0,0.0006,0.0,0.0,0.0,0.0006,0.35194764404296874,-0.062249243164062495,9.868899243164062,0.01,0.0,0.0,0.0,0.01,0.0,0.0,0.0,0.01
1678822353.0259411,11828,1678822353,24505968,aquila2/os_imu,0.0,0.0,0.0,0.0,-1.0,-1.0,-1.0,-1.0,-1.0,-1.0,-1.0,-1.0,-1.0,-0.022636869265673522,-0.010519486305812991,0.002530003035575276,0.0006,0.0,0.0,0.0,0.0006,0.0,0.0,0.0,0.0006,0.4165910888671875,0.10773907470703124,9.835380419921874,0.01,0.0,0.0,0.0,0.01,0.0,0.0,0.0,0.01
1678822353.0353272,11829,1678822353,34508080,aquila2/os_imu,0.0,0.0,0.0,0.0,-1.0,-1.0,-1.0,-1.0,-1.0,-1.0,-1.0,-1.0,-1.0,-0.014114753777419962,0.014381069886427886,0.003728425526110933,0.0006,0.0,0.0,0.0,0.0006,0.0,0.0,0.0,0.0006,0.2537853759765625,-0.3687070556640625,9.85692823486328,0.01,0.0,0.0,0.0,0.01,0.0,0.0,0.0,0.01
1678822353.0462809,11830,1678822353,44508274,aquila2/os_imu,0.0,0.0,0.0,0.0,-1.0,-1.0,-1.0,-1.0,-1.0,-1.0,-1.0,-1.0,-1.0,0.006791060779702058,0.0042610577441267805,0.001331580545039619,0.0006,0.0,0.0,0.0,0.0006,0.0,0.0,0.0,0.0006,0.28730419921875,-0.5817910034179687,9.859322436523437,0.01,0.0,0.0,0.0,0.01,0.0,0.0,0.0,0.01
1678822353.05563,11831,1678822353,54526140,aquila2/os_imu,0.0,0.0,0.0,0.0,-1.0,-1.0,-1.0,-1.0,-1.0,-1.0,-1.0,-1.0,-1.0,0.017177389031011087,-0.018375811521546742,0.010253170196805066,0.0006,0.0,0.0,0.0,0.0006,0.0,0.0,0.0,0.0006,0.1580173095703125,-0.21787235107421873,9.76116016845703,0.01,0.0,0.0,0.0,0.01,0.0,0.0,0.0,0.01
1678822353.065107,11832,1678822353,64526071,aquila2/os_imu,0.0,0.0,0.0,0.0,-1.0,-1.0,-1.0,-1.0,-1.0,-1.0,-1.0,-1.0,-1.0,-0.005193164125654515,-0.015446334322459582,0.0009321063815277333,0.0006,0.0,0.0,0.0,0.0006,0.0,0.0,0.0,0.0006,0.033518823242187495,-0.062249243164062495,9.935936889648437,0.01,0.0,0.0,0.0,0.01,0.0,0.0,0.0,0.01
1678822353.075979,11833,1678822353,74528488,aquila2/os_imu,0.0,0.0,0.0,0.0,-1.0,-1.0,-1.0,-1.0,-1.0,-1.0,-1.0,-1.0,-1.0,-0.023702133701705222,-0.010120012142301104,0.004527373853134705,0.0006,0.0,0.0,0.0,0.0006,0.0,0.0,0.0,0.0006,0.4213794921875,-0.1580173095703125,9.897629663085937,0.01,0.0,0.0,0.0,0.01,0.0,0.0,0.0,0.01
1678822353.0853283,11834,1678822353,84545485,aquila2/os_imu,0.0,0.0,0.0,0.0,-1.0,-1.0,-1.0,-1.0,-1.0,-1.0,-1.0,-1.0,-1.0,-0.0021305288720633903,-0.007723167161229791,0.002530003035575276,0.0006,0.0,0.0,0.0,0.0006,0.0,0.0,0.0,0.0006,0.18914193115234373,-0.7781155395507812,9.83777462158203,0.01,0.0,0.0,0.0,0.01,0.0,0.0,0.0,0.01
1678822353.0962365,11835,1678822353,94545852,aquila2/os_imu,0.0,0.0,0.0,0.0,-1.0,-1.0,-1.0,-1.0,-1.0,-1.0,-1.0,-1.0,-1.0,0.0006657902725198095,-0.007057376888709981,-0.0055926382891664,0.0006,0.0,0.0,0.0,0.0006,0.0,0.0,0.0,0.0006,0.15562310791015624,-0.7062894897460937,9.787496386718749,0.01,0.0,0.0,0.0,0.01,0.0,0.0,0.0,0.01
1678822353.1057138,11836,1678822353,104548750,aquila2/os_imu,0.0,0.0,0.0,0.0,-1.0,-1.0,-1.0,-1.0,-1.0,-1.0,-1.0,-1.0,-1.0,0.014247911831923924,0.0005326322180158476,-0.001331580545039619,0.0006,0.0,0.0,0.0,0.0006,0.0,0.0,0.0,0.0006,0.09816226806640624,-0.45010991210937495,9.7683427734375,0.01,0.0,0.0,0.0,0.01,0.0,0.0,0.0,0.01
1678822353.1150115,11837,1678822353,114548907,aquila2/os_imu,0.0,0.0,0.0,0.0,-1.0,-1.0,-1.0,-1.0,-1.0,-1.0,-1.0,-1.0,-1.0,-0.0023968449810713144,-0.014913702104443732,-0.0021305288720633903,0.0006,0.0,0.0,0.0,0.0006,0.0,0.0,0.0,0.0006,0.10295067138671875,-0.01915361328125,10.1131078125,0.01,0.0,0.0,0.0,0.01,0.0,0.0,0.0,0.01
1678822353.1260319,11838,1678822353,124565499,aquila2/os_imu,0.0,0.0,0.0,0.0,-1.0,-1.0,-1.0,-1.0,-1.0,-1.0,-1.0,-1.0,-1.0,-0.015712650431467506,-0.0015978966540475428,0.0029294771990871615,0.0006,0.0,0.0,0.0,0.0006,0.0,0.0,0.0,0.0006,0.36631285400390623,-0.01915361328125,9.885658654785155,0.01,0.0,0.0,0.0,0.01,0.0,0.0,0.0,0.01
1678822353.1353426,11839,1678822353,134569071,aquila2/os_imu,0.0,0.0,0.0,0.0,-1.0,-1.0,-1.0,-1.0,-1.0,-1.0,-1.0,-1.0,-1.0,-0.015180018213451656,-0.0111852765783328,0.005060006071150552,0.0006,0.0,0.0,0.0,0.0006,0.0,0.0,0.0,0.0006,0.47884033203125,-0.3902548706054687,9.85692823486328,0.01,0.0,0.0,0.0,0.01,0.0,0.0,0.0,0.01
1678822353.1463716,11840,1678822353,144569037,aquila2/os_imu,0.0,0.0,0.0,0.0,-1.0,-1.0,-1.0,-1.0,-1.0,-1.0,-1.0,-1.0,-1.0,-0.0001331580545039619,0.0002663161090079238,0.005725796343670361,0.0006,0.0,0.0,0.0,0.0006,0.0,0.0,0.0,0.0006,0.23702596435546874,-0.33518823242187495,9.840168823242188,0.01,0.0,0.0,0.0,0.01,0.0,0.0,0.0,0.01
1678822353.1555965,11841,1678822353,154585100,aquila2/os_imu,0.0,0.0,0.0,0.0,-1.0,-1.0,-1.0,-1.0,-1.0,-1.0,-1.0,-1.0,-1.0,0.006125270507182248,-0.014381069886427886,0.003728425526110933,0.0006,0.0,0.0,0.0,0.0006,0.0,0.0,0.0,0.0006,0.12210428466796874,-0.1580173095703125,9.916783276367187,0.01,0.0,0.0,0.0,0.01,0.0,0.0,0.0,0.01
1678822353.1651366,11842,1678822353,164585073,aquila2/os_imu,0.0,0.0,0.0,0.0,-1.0,-1.0,-1.0,-1.0,-1.0,-1.0,-1.0,-1.0,-1.0,-0.008522115488253561,-0.021837920938649752,-0.002530003035575276,0.0006,0.0,0.0,0.0,0.0006,0.0,0.0,0.0,0.0006,0.143652099609375,-0.10295067138671875,9.907206469726562,0.01,0.0,0.0,0.0,0.01,0.0,0.0,0.0,0.01
1678822353.175984,11843,1678822353,174589434,aquila2/os_imu,0.0,0.0,0.0,0.0,-1.0,-1.0,-1.0,-1.0,-1.0,-1.0,-1.0,-1.0,-1.0,-0.02077265650261806,-0.007057376888709981,0.004527373853134705,0.0006,0.0,0.0,0.0,0.0006,0.0,0.0,0.0,0.0006,0.47644613037109373,0.0047884033203125,9.787496386718749,0.01,0.0,0.0,0.0,0.01,0.0,0.0,0.0,0.01
1678822353.1854382,11844,1678822353,184589539,aquila2/os_imu,0.0,0.0,0.0,0.0,-1.0,-1.0,-1.0,-1.0,-1.0,-1.0,-1.0,-1.0,-1.0,-0.008255799379245638,-0.0073236929977179045,0.004527373853134705,0.0006,0.0,0.0,0.0,0.0006,0.0,0.0,0.0,0.0006,0.22505495605468748,-0.6679822631835937,9.792284790039062,0.01,0.0,0.0,0.0,0.01,0.0,0.0,0.0,0.01
1678822353.1961906,11845,1678822353,194604806,aquila2/os_imu,0.0,0.0,0.0,0.0,-1.0,-1.0,-1.0,-1.0,-1.0,-1.0,-1.0,-1.0,-1.0,0.0031957933080950856,-0.0014647385995435807,0.004660531907638666,0.0006,0.0,0.0,0.0,0.0006,0.0,0.0,0.0,0.0006,0.28730419921875,-0.7302315063476562,9.79946739501953,0.01,0.0,0.0,0.0,0.01,0.0,0.0,0.0,0.01
1678822353.2056618,11846,1678822353,204609788,aquila2/os_imu,0.0,0.0,0.0,0.0,-1.0,-1.0,-1.0,-1.0,-1.0,-1.0,-1.0,-1.0,-1.0,0.010918960469324876,-0.02316950148368937,0.004660531907638666,0.0006,0.0,0.0,0.0,0.0006,0.0,0.0,0.0,0.0006,0.2346317626953125,-0.5195417602539062,9.629479077148437,0.01,0.0,0.0,0.0,0.01,0.0,0.0,0.0,0.01
1678822353.2151458,11847,1678822353,214609551,aquila2/os_imu,0.0,0.0,0.0,0.0,-1.0,-1.0,-1.0,-1.0,-1.0,-1.0,-1.0,-1.0,-1.0,-0.002530003035575276,-0.022636869265673522,-0.0005326322180158476,0.0006,0.0,0.0,0.0,0.0006,0.0,0.0,0.0,0.0006,0.08140285644531249,-0.2346317626953125,9.816226806640625,0.01,0.0,0.0,0.0,0.01,0.0,0.0,0.0,0.01
1678822353.2261236,11848,1678822353,224624107,aquila2/os_imu,0.0,0.0,0.0,0.0,-1.0,-1.0,-1.0,-1.0,-1.0,-1.0,-1.0,-1.0,-1.0,-0.014114753777419962,-0.010120012142301104,0.0018642127630554665,0.0006,0.0,0.0,0.0,0.0006,0.0,0.0,0.0,0.0006,0.44532150878906246,-0.1388636962890625,9.904812268066406,0.01,0.0,0.0,0.0,0.01,0.0,0.0,0.0,0.01
1678822353.235366,11849,1678822353,234624314,aquila2/os_imu,0.0,0.0,0.0,0.0,-1.0,-1.0,-1.0,-1.0,-1.0,-1.0,-1.0,-1.0,-1.0,-0.02037318233910617,0.009454221869781294,0.003728425526110933,0.0006,0.0,0.0,0.0,0.0006,0.0,0.0,0.0,0.0006,0.25139117431640623,-0.6823474731445313,9.651026892089844,0.01,0.0,0.0,0.0,0.01,0.0,0.0,0.0,0.01
1678822353.2464333,11850,1678822353,244630368,aquila2/os_imu,0.0,0.0,0.0,0.0,-1.0,-1.0,-1.0,-1.0,-1.0,-1.0,-1.0,-1.0,-1.0,0.0001331580545039619,0.003728425526110933,0.0014647385995435807,0.0006,0.0,0.0,0.0,0.0006,0.0,0.0,0.0,0.0006,0.20829554443359374,-0.46208092041015625,9.988609326171874,0.01,0.0,0.0,0.0,0.01,0.0,0.0,0.0,0.01
1678822353.2556486,11851,1678822353,254644116,aquila2/os_imu,0.0,0.0,0.0,0.0,-1.0,-1.0,-1.0,-1.0,-1.0,-1.0,-1.0,-1.0,-1.0,0.02024002428460221,-0.0195742340120824,0.007590009106725828,0.0006,0.0,0.0,0.0,0.0006,0.0,0.0,0.0,0.0006,0.22505495605468748,-0.33758243408203126,9.756371765136718,0.01,0.0,0.0,0.0,0.01,0.0,0.0,0.0,0.01
1678822353.2666922,11852,1678822353,264644069,aquila2/os_imu,0.0,0.0,0.0,0.0,-1.0,-1.0,-1.0,-1.0,-1.0,-1.0,-1.0,-1.0,-1.0,0.002530003035575276,-0.02343581759269729,0.005060006071150552,0.0006,0.0,0.0,0.0,0.0006,0.0,0.0,0.0,0.0006,0.3806780639648437,0.19153613281249998,9.919177478027343,0.01,0.0,0.0,0.0,0.01,0.0,0.0,0.0,0.01
1678822353.276018,11853,1678822353,274650501,aquila2/os_imu,0.0,0.0,0.0,0.0,-1.0,-1.0,-1.0,-1.0,-1.0,-1.0,-1.0,-1.0,-1.0,-0.01824265346704278,0.0049268480166465905,0.0005326322180158476,0.0006,0.0,0.0,0.0,0.0006,0.0,0.0,0.0,0.0006,0.38307226562499996,-0.023942016601562498,9.828197814941406,0.01,0.0,0.0,0.0,0.01,0.0,0.0,0.0,0.01
1678822353.2855349,11854,1678822353,284650614,aquila2/os_imu,0.0,0.0,0.0,0.0,-1.0,-1.0,-1.0,-1.0,-1.0,-1.0,-1.0,-1.0,-1.0,-0.010120012142301104,0.004394215798630743,0.004394215798630743,0.0006,0.0,0.0,0.0,0.0006,0.0,0.0,0.0,0.0006,0.2705447875976562,-0.4261678955078125,9.82580361328125,0.01,0.0,0.0,0.0,0.01,0.0,0.0,0.0,0.01
1678822353.2963107,11855,1678822353,294663805,aquila2/os_imu,0.0,0.0,0.0,0.0,-1.0,-1.0,-1.0,-1.0,-1.0,-1.0,-1.0,-1.0,-1.0,0.005725796343670361,-0.01731054708551505,0.003062635253591124,0.0006,0.0,0.0,0.0,0.0006,0.0,0.0,0.0,0.0006,0.4572925170898437,-0.38307226562499996,9.770736975097655,0.01,0.0,0.0,0.0,0.01,0.0,0.0,0.0,0.01
1678822353.3057938,11856,1678822353,304670831,aquila2/os_imu,0.0,0.0,0.0,0.0,-1.0,-1.0,-1.0,-1.0,-1.0,-1.0,-1.0,-1.0,-1.0,0.009587379924285258,-0.011451592687340723,0.0035952674716069714,0.0006,0.0,0.0,0.0,0.0006,0.0,0.0,0.0,0.0006,0.10773907470703124,-0.4381389038085937,9.65342109375,0.01,0.0,0.0,0.0,0.01,0.0,0.0,0.0,0.01
1678822353.3152118,11857,1678822353,314670921,aquila2/os_imu,0.0,0.0,0.0,0.0,-1.0,-1.0,-1.0,-1.0,-1.0,-1.0,-1.0,-1.0,-1.0,0.006391586616190171,-0.007590009106725828,-0.001331580545039619,0.0006,0.0,0.0,0.0,0.0006,0.0,0.0,0.0,0.0006,0.016759411621093748,0.01915361328125,10.196904870605469,0.01,0.0,0.0,0.0,0.01,0.0,0.0,0.0,0.01
1678822353.3261318,11858,1678822353,324683576,aquila2/os_imu,0.0,0.0,0.0,0.0,-1.0,-1.0,-1.0,-1.0,-1.0,-1.0,-1.0,-1.0,-1.0,-0.017576863194522972,-0.0015978966540475428,0.0042610577441267805,0.0006,0.0,0.0,0.0,0.0006,0.0,0.0,0.0,0.0006,0.4213794921875,-0.13646949462890623,9.804255798339844,0.01,0.0,0.0,0.0,0.01,0.0,0.0,0.0,0.01
1678822353.3354545,11859,1678822353,334682825,aquila2/os_imu,0.0,0.0,0.0,0.0,-1.0,-1.0,-1.0,-1.0,-1.0,-1.0,-1.0,-1.0,-1.0,-0.010918960469324876,-0.0027963191445832,0.007456851052221866,0.0006,0.0,0.0,0.0,0.0006,0.0,0.0,0.0,0.0006,0.2537853759765625,-0.5410895751953124,9.809044201660155,0.01,0.0,0.0,0.0,0.01,0.0,0.0,0.0,0.01
1678822353.347914,11860,1678822353,344691418,aquila2/os_imu,0.0,0.0,0.0,0.0,-1.0,-1.0,-1.0,-1.0,-1.0,-1.0,-1.0,-1.0,-1.0,-0.0022636869265673524,-0.00905474770626941,-0.0003994741635118857,0.0006,0.0,0.0,0.0,0.0006,0.0,0.0,0.0,0.0006,0.4165910888671875,-0.45968671875,9.868899243164062,0.01,0.0,0.0,0.0,0.01,0.0,0.0,0.0,0.01
1678822353.3557565,11861,1678822353,354690942,aquila2/os_imu,0.0,0.0,0.0,0.0,-1.0,-1.0,-1.0,-1.0,-1.0,-1.0,-1.0,-1.0,-1.0,0.015046860158947694,-0.0014647385995435807,0.003062635253591124,0.0006,0.0,0.0,0.0,0.0006,0.0,0.0,0.0,0.0006,0.0909796630859375,-0.24899697265624998,9.823409411621093,0.01,0.0,0.0,0.0,0.01,0.0,0.0,0.0,0.01
1678822353.3652642,11862,1678822353,364702804,aquila2/os_imu,0.0,0.0,0.0,0.0,-1.0,-1.0,-1.0,-1.0,-1.0,-1.0,-1.0,-1.0,-1.0,-0.005193164125654515,-0.013049489341388266,0.003062635253591124,0.0006,0.0,0.0,0.0,0.0006,0.0,0.0,0.0,0.0006,0.3399766357421875,-0.09816226806640624,9.931148486328125,0.01,0.0,0.0,0.0,0.01,0.0,0.0,0.0,0.01
1678822353.3761814,11863,1678822353,374711460,aquila2/os_imu,0.0,0.0,0.0,0.0,-1.0,-1.0,-1.0,-1.0,-1.0,-1.0,-1.0,-1.0,-1.0,-0.019973708175594285,-0.012117382959860534,0.0002663161090079238,0.0006,0.0,0.0,0.0,0.0006,0.0,0.0,0.0,0.0006,0.21787235107421873,0.24660277099609373,9.672574707031249,0.01,0.0,0.0,0.0,0.01,0.0,0.0,0.0,0.01
1678822353.3855019,11864,1678822353,384711263,aquila2/os_imu,0.0,0.0,0.0,0.0,-1.0,-1.0,-1.0,-1.0,-1.0,-1.0,-1.0,-1.0,-1.0,-0.019174759848570515,0.009187905760773371,0.004660531907638666,0.0006,0.0,0.0,0.0,0.0006,0.0,0.0,0.0,0.0006,0.239420166015625,-0.28012159423828126,9.926360083007811,0.01,0.0,0.0,0.0,0.01,0.0,0.0,0.0,0.01
1678822353.3964145,11865,1678822353,394722898,aquila2/os_imu,0.0,0.0,0.0,0.0,-1.0,-1.0,-1.0,-1.0,-1.0,-1.0,-1.0,-1.0,-1.0,-0.001731054708551505,0.0035952674716069714,0.0042610577441267805,0.0006,0.0,0.0,0.0,0.0006,0.0,0.0,0.0,0.0006,0.30406361083984373,-0.34237083740234375,9.828197814941406,0.01,0.0,0.0,0.0,0.01,0.0,0.0,0.0,0.01
1678822353.4057927,11866,1678822353,404722246,aquila2/os_imu,0.0,0.0,0.0,0.0,-1.0,-1.0,-1.0,-1.0,-1.0,-1.0,-1.0,-1.0,-1.0,0.01384843766841204,-0.01731054708551505,0.0029294771990871615,0.0006,0.0,0.0,0.0,0.0006,0.0,0.0,0.0,0.0006,0.08858546142578125,-0.16280571289062498,9.651026892089844,0.01,0.0,0.0,0.0,0.01,0.0,0.0,0.0,0.01
1678822353.4152646,11867,1678822353,414731854,aquila2/os_imu,0.0,0.0,0.0,0.0,-1.0,-1.0,-1.0,-1.0,-1.0,-1.0,-1.0,-1.0,-1.0,-0.0021305288720633903,-0.013981595722916,-0.002663161090079238,0.0006,0.0,0.0,0.0,0.0006,0.0,0.0,0.0,0.0006,0.5003881469726562,0.016759411621093748,9.97903251953125,0.01,0.0,0.0,0.0,0.01,0.0,0.0,0.0,0.01
1678822353.426177,11868,1678822353,424742028,aquila2/os_imu,0.0,0.0,0.0,0.0,-1.0,-1.0,-1.0,-1.0,-1.0,-1.0,-1.0,-1.0,-1.0,-0.017710021249026934,-0.0027963191445832,0.004793689962142629,0.0006,0.0,0.0,0.0,0.0006,0.0,0.0,0.0,0.0006,0.5961562133789062,-0.11252747802734374,10.081983190917969,0.01,0.0,0.0,0.0,0.01,0.0,0.0,0.0,0.01
1678822353.4356506,11869,1678822353,434742359,aquila2/os_imu,0.0,0.0,0.0,0.0,-1.0,-1.0,-1.0,-1.0,-1.0,-1.0,-1.0,-1.0,-1.0,-0.012916331286884304,-0.001331580545039619,0.0027963191445832,0.0006,0.0,0.0,0.0,0.0006,0.0,0.0,0.0,0.0006,0.3184288208007812,-0.5626373901367188,9.770736975097655,0.01,0.0,0.0,0.0,0.01,0.0,0.0,0.0,0.01
1678822353.4465241,11870,1678822353,444752314,aquila2/os_imu,0.0,0.0,0.0,0.0,-1.0,-1.0,-1.0,-1.0,-1.0,-1.0,-1.0,-1.0,-1.0,0.0019973708175594286,-0.008921589651765448,0.007723167161229791,0.0006,0.0,0.0,0.0,0.0006,0.0,0.0,0.0,0.0006,0.35194764404296874,-0.9337386474609375,9.74200655517578,0.01,0.0,0.0,0.0,0.01,0.0,0.0,0.0,0.01
1678822353.4558282,11871,1678822353,454752339,aquila2/os_imu,0.0,0.0,0.0,0.0,-1.0,-1.0,-1.0,-1.0,-1.0,-1.0,-1.0,-1.0,-1.0,0.017177389031011087,-0.007590009106725828,-0.0022636869265673524,0.0006,0.0,0.0,0.0,0.0006,0.0,0.0,0.0,0.0006,0.2346317626953125,-0.3112462158203125,9.89523546142578,0.01,0.0,0.0,0.0,0.01,0.0,0.0,0.0,0.01
1678822353.4653316,11872,1678822353,464762084,aquila2/os_imu,0.0,0.0,0.0,0.0,-1.0,-1.0,-1.0,-1.0,-1.0,-1.0,-1.0,-1.0,-1.0,-0.0002663161090079238,-0.018508969576050704,-0.007590009106725828,0.0006,0.0,0.0,0.0,0.0006,0.0,0.0,0.0,0.0006,-0.0430956298828125,-0.18914193115234373,9.830592016601562,0.01,0.0,0.0,0.0,0.01,0.0,0.0,0.0,0.01
1678822353.476244,11873,1678822353,474761984,aquila2/os_imu,0.0,0.0,0.0,0.0,-1.0,-1.0,-1.0,-1.0,-1.0,-1.0,-1.0,-1.0,-1.0,-0.021438446775137867,-0.0049268480166465905,0.003728425526110933,0.0006,0.0,0.0,0.0,0.0006,0.0,0.0,0.0,0.0006,0.28969840087890625,-0.13168109130859373,9.718064538574218,0.01,0.0,0.0,0.0,0.01,0.0,0.0,0.0,0.01
1678822353.485648,11874,1678822353,484772275,aquila2/os_imu,0.0,0.0,0.0,0.0,-1.0,-1.0,-1.0,-1.0,-1.0,-1.0,-1.0,-1.0,-1.0,-0.011318434632836761,0.00692421883420602,0.007057376888709981,0.0006,0.0,0.0,0.0,0.0006,0.0,0.0,0.0,0.0006,0.45489831542968745,-0.4333505004882812,9.986215124511718,0.01,0.0,0.0,0.0,0.01,0.0,0.0,0.0,0.01
1678822353.4965177,11875,1678822353,494781922,aquila2/os_imu,0.0,0.0,0.0,0.0,-1.0,-1.0,-1.0,-1.0,-1.0,-1.0,-1.0,-1.0,-1.0,-0.0027963191445832,-0.009187905760773371,0.004660531907638666,0.0006,0.0,0.0,0.0,0.0006,0.0,0.0,0.0,0.0006,0.15083470458984374,-0.3950432739257812,9.792284790039062,0.01,0.0,0.0,0.0,0.01,0.0,0.0,0.0,0.01
1678822353.5060356,11876,1678822353,504781721,aquila2/os_imu,0.0,0.0,0.0,0.0,-1.0,-1.0,-1.0,-1.0,-1.0,-1.0,-1.0,-1.0,-1.0,0.02090581455712202,-0.01478054404993977,0.003728425526110933,0.0006,0.0,0.0,0.0,0.0006,0.0,0.0,0.0,0.0006,0.21308394775390624,-0.28730419921875,9.629479077148437,0.01,0.0,0.0,0.0,0.01,0.0,0.0,0.0,0.01
1678822353.515382,11877,1678822353,514792860,aquila2/os_imu,0.0,0.0,0.0,0.0,-1.0,-1.0,-1.0,-1.0,-1.0,-1.0,-1.0,-1.0,-1.0,0.004793689962142629,-0.019174759848570515,-0.0066579027251980945,0.0006,0.0,0.0,0.0,0.0006,0.0,0.0,0.0,0.0006,0.45010991210937495,-0.09576806640624999,10.089165795898436,0.01,0.0,0.0,0.0,0.01,0.0,0.0,0.0,0.01
1678822353.5264244,11878,1678822353,524793096,aquila2/os_imu,0.0,0.0,0.0,0.0,-1.0,-1.0,-1.0,-1.0,-1.0,-1.0,-1.0,-1.0,-1.0,-0.01344896350490015,-0.006125270507182248,0.0023968449810713144,0.0006,0.0,0.0,0.0,0.0006,0.0,0.0,0.0,0.0006,0.28490999755859375,0.18435352783203124,9.734823950195311,0.01,0.0,0.0,0.0,0.01,0.0,0.0,0.0,0.01
1678822353.5356545,11879,1678822353,534801342,aquila2/os_imu,0.0,0.0,0.0,0.0,-1.0,-1.0,-1.0,-1.0,-1.0,-1.0,-1.0,-1.0,-1.0,-0.01731054708551505,-0.008122641324741676,0.0073236929977179045,0.0006,0.0,0.0,0.0,0.0006,0.0,0.0,0.0,0.0006,0.30885201416015623,-0.5315127685546874,9.777919580078125,0.01,0.0,0.0,0.0,0.01,0.0,0.0,0.0,0.01
1678822353.5467324,11880,1678822353,544813214,aquila2/os_imu,0.0,0.0,0.0,0.0,-1.0,-1.0,-1.0,-1.0,-1.0,-1.0,-1.0,-1.0,-1.0,0.0015978966540475428,-0.008522115488253561,0.005992112452678286,0.0006,0.0,0.0,0.0,0.0006,0.0,0.0,0.0,0.0006,0.2059013427734375,-0.6655880615234374,9.926360083007811,0.01,0.0,0.0,0.0,0.01,0.0,0.0,0.0,0.01
1678822353.5560596,11881,1678822353,554813250,aquila2/os_imu,0.0,0.0,0.0,0.0,-1.0,-1.0,-1.0,-1.0,-1.0,-1.0,-1.0,-1.0,-1.0,0.01251685712337242,-0.00346210941710301,0.003062635253591124,0.0006,0.0,0.0,0.0,0.0006,0.0,0.0,0.0,0.0006,0.05027823486328125,-0.49320554199218747,9.753977563476562,0.01,0.0,0.0,0.0,0.01,0.0,0.0,0.0,0.01
1678822353.5655477,11882,1678822353,564821010,aquila2/os_imu,0.0,0.0,0.0,0.0,-1.0,-1.0,-1.0,-1.0,-1.0,-1.0,-1.0,-1.0,-1.0,-0.005858954398174323,-0.023968449810713145,-0.0001331580545039619,0.0006,0.0,0.0,0.0,0.0006,0.0,0.0,0.0,0.0006,0.06464344482421874,-0.1867477294921875,9.892841259765625,0.01,0.0,0.0,0.0,0.01,0.0,0.0,0.0,0.01
1678822353.5763988,11883,1678822353,574821052,aquila2/os_imu,0.0,0.0,0.0,0.0,-1.0,-1.0,-1.0,-1.0,-1.0,-1.0,-1.0,-1.0,-1.0,-0.02343581759269729,-0.0038615835806148956,0.005459480234662438,0.0006,0.0,0.0,0.0,0.0006,0.0,0.0,0.0,0.0006,0.45968671875,-0.11013327636718749,9.528922607421874,0.01,0.0,0.0,0.0,0.01,0.0,0.0,0.0,0.01
1678822353.5859134,11884,1678822353,584833663,aquila2/os_imu,0.0,0.0,0.0,0.0,-1.0,-1.0,-1.0,-1.0,-1.0,-1.0,-1.0,-1.0,-1.0,-0.015046860158947694,-0.0015978966540475428,0.0022636869265673524,0.0006,0.0,0.0,0.0,0.0006,0.0,0.0,0.0,0.0006,0.22744915771484372,-0.5722141967773438,9.775525378417969,0.01,0.0,0.0,0.0,0.01,0.0,0.0,0.0,0.01
1678822353.5966237,11885,1678822353,594840842,aquila2/os_imu,0.0,0.0,0.0,0.0,-1.0,-1.0,-1.0,-1.0,-1.0,-1.0,-1.0,-1.0,-1.0,0.004527373853134705,-0.006391586616190171,0.003994741635118857,0.0006,0.0,0.0,0.0,0.0006,0.0,0.0,0.0,0.0006,0.14604630126953125,-0.679953271484375,9.76116016845703,0.01,0.0,0.0,0.0,0.01,0.0,0.0,0.0,0.01
1678822353.606208,11886,1678822353,604840303,aquila2/os_imu,0.0,0.0,0.0,0.0,-1.0,-1.0,-1.0,-1.0,-1.0,-1.0,-1.0,-1.0,-1.0,0.009321063815277333,-0.010120012142301104,0.009986854087797143,0.0006,0.0,0.0,0.0,0.0006,0.0,0.0,0.0,0.0006,0.28730419921875,-0.316034619140625,9.60793126220703,0.01,0.0,0.0,0.0,0.01,0.0,0.0,0.0,0.01
1678822353.6154673,11887,1678822353,614853596,aquila2/os_imu,0.0,0.0,0.0,0.0,-1.0,-1.0,-1.0,-1.0,-1.0,-1.0,-1.0,-1.0,-1.0,-0.0049268480166465905,-0.017976337358034857,-0.0001331580545039619,0.0006,0.0,0.0,0.0,0.0006,0.0,0.0,0.0,0.0006,0.1867477294921875,-0.0909796630859375,9.7683427734375,0.01,0.0,0.0,0.0,0.01,0.0,0.0,0.0,0.01
1678822353.6265779,11888,1678822353,624854114,aquila2/os_imu,0.0,0.0,0.0,0.0,-1.0,-1.0,-1.0,-1.0,-1.0,-1.0,-1.0,-1.0,-1.0,-0.014247911831923924,0.0021305288720633903,0.002663161090079238,0.0006,0.0,0.0,0.0,0.0006,0.0,0.0,0.0,0.0006,0.17477672119140625,-0.16041151123046873,10.041281762695311,0.01,0.0,0.0,0.0,0.01,0.0,0.0,0.0,0.01
1678822353.6359122,11889,1678822353,634860071,aquila2/os_imu,0.0,0.0,0.0,0.0,-1.0,-1.0,-1.0,-1.0,-1.0,-1.0,-1.0,-1.0,-1.0,-0.02024002428460221,0.015446334322459582,0.005725796343670361,0.0006,0.0,0.0,0.0,0.0006,0.0,0.0,0.0,0.0006,0.28730419921875,-0.4213794921875,9.797073193359374,0.01,0.0,0.0,0.0,0.01,0.0,0.0,0.0,0.01
1678822353.6468048,11890,1678822353,644860393,aquila2/os_imu,0.0,0.0,0.0,0.0,-1.0,-1.0,-1.0,-1.0,-1.0,-1.0,-1.0,-1.0,-1.0,-0.003728425526110933,-0.0035952674716069714,0.005992112452678286,0.0006,0.0,0.0,0.0,0.0006,0.0,0.0,0.0,0.0006,0.05027823486328125,-0.5195417602539062,9.775525378417969,0.01,0.0,0.0,0.0,0.01,0.0,0.0,0.0,0.01
1678822353.6562073,11891,1678822353,654874364,aquila2/os_imu,0.0,0.0,0.0,0.0,-1.0,-1.0,-1.0,-1.0,-1.0,-1.0,-1.0,-1.0,-1.0,0.015446334322459582,-0.001331580545039619,0.0023968449810713144,0.0006,0.0,0.0,0.0,0.0006,0.0,0.0,0.0,0.0006,0.105344873046875,-0.4525041137695312,9.871293444824218,0.01,0.0,0.0,0.0,0.01,0.0,0.0,0.0,0.01
1678822353.6657174,11892,1678822353,664880098,aquila2/os_imu,0.0,0.0,0.0,0.0,-1.0,-1.0,-1.0,-1.0,-1.0,-1.0,-1.0,-1.0,-1.0,-0.0083889574337496,-0.016378440703987314,-0.005725796343670361,0.0006,0.0,0.0,0.0,0.0006,0.0,0.0,0.0,0.0006,0.18435352783203124,-0.023942016601562498,9.911994873046874,0.01,0.0,0.0,0.0,0.01,0.0,0.0,0.0,0.01
1678822353.676472,11893,1678822353,674880068,aquila2/os_imu,0.0,0.0,0.0,0.0,-1.0,-1.0,-1.0,-1.0,-1.0,-1.0,-1.0,-1.0,-1.0,-0.018642127630554665,0.0015978966540475428,0.008921589651765448,0.0006,0.0,0.0,0.0,0.0006,0.0,0.0,0.0,0.0006,0.4213794921875,-0.20350714111328125,9.955090502929687,0.01,0.0,0.0,0.0,0.01,0.0,0.0,0.0,0.01
1678822353.685932,11894,1678822353,684894608,aquila2/os_imu,0.0,0.0,0.0,0.0,-1.0,-1.0,-1.0,-1.0,-1.0,-1.0,-1.0,-1.0,-1.0,-0.013182647395892227,-0.0011984224905356572,0.0027963191445832,0.0006,0.0,0.0,0.0,0.0006,0.0,0.0,0.0,0.0006,0.24899697265624998,-0.6009446166992187,10.120290417480469,0.01,0.0,0.0,0.0,0.01,0.0,0.0,0.0,0.01
1678822353.6967263,11895,1678822353,694894451,aquila2/os_imu,0.0,0.0,0.0,0.0,-1.0,-1.0,-1.0,-1.0,-1.0,-1.0,-1.0,-1.0,-1.0,0.003994741635118857,0.001331580545039619,0.01038632825130903,0.0006,0.0,0.0,0.0,0.0006,0.0,0.0,0.0,0.0006,0.16280571289062498,-0.6296750366210937,9.610325463867188,0.01,0.0,0.0,0.0,0.01,0.0,0.0,0.0,0.01
1678822353.7063034,11896,1678822353,704899674,aquila2/os_imu,0.0,0.0,0.0,0.0,-1.0,-1.0,-1.0,-1.0,-1.0,-1.0,-1.0,-1.0,-1.0,0.019041601794066554,-0.022770027320177483,0.0006657902725198095,0.0006,0.0,0.0,0.0,0.0006,0.0,0.0,0.0,0.0006,0.13646949462890623,-0.5147533569335937,9.813832604980469,0.01,0.0,0.0,0.0,0.01,0.0,0.0,0.0,0.01
1678822353.7155855,11897,1678822353,714914924,aquila2/os_imu,0.0,0.0,0.0,0.0,-1.0,-1.0,-1.0,-1.0,-1.0,-1.0,-1.0,-1.0,-1.0,0.003728425526110933,-0.004793689962142629,-0.004127899689622819,0.0006,0.0,0.0,0.0,0.0006,0.0,0.0,0.0,0.0006,0.076614453125,-0.258573779296875,10.098742602539062,0.01,0.0,0.0,0.0,0.01,0.0,0.0,0.0,0.01
1678822353.726604,11898,1678822353,724915105,aquila2/os_imu,0.0,0.0,0.0,0.0,-1.0,-1.0,-1.0,-1.0,-1.0,-1.0,-1.0,-1.0,-1.0,-0.016245282649483352,0.003062635253591124,-0.0007989483270237714,0.0006,0.0,0.0,0.0,0.0006,0.0,0.0,0.0,0.0006,0.2059013427734375,-0.04548983154296875,9.813832604980469,0.01,0.0,0.0,0.0,0.01,0.0,0.0,0.0,0.01
1678822353.7359784,11899,1678822353,734919394,aquila2/os_imu,0.0,0.0,0.0,0.0,-1.0,-1.0,-1.0,-1.0,-1.0,-1.0,-1.0,-1.0,-1.0,-0.012117382959860534,0.004660531907638666,0.0003994741635118857,0.0006,0.0,0.0,0.0,0.0006,0.0,0.0,0.0,0.0006,0.469263525390625,-0.4908113403320312,9.890447058105469,0.01,0.0,0.0,0.0,0.01,0.0,0.0,0.0,0.01
1678822353.7468643,11900,1678822353,744919409,aquila2/os_imu,0.0,0.0,0.0,0.0,-1.0,-1.0,-1.0,-1.0,-1.0,-1.0,-1.0,-1.0,-1.0,0.0002663161090079238,-0.007456851052221866,0.0038615835806148956,0.0006,0.0,0.0,0.0,0.0006,0.0,0.0,0.0,0.0006,-0.009576806640625,-0.5051765502929687,9.9215716796875,0.01,0.0,0.0,0.0,0.01,0.0,0.0,0.0,0.01
1678822353.7561336,11901,1678822353,754935239,aquila2/os_imu,0.0,0.0,0.0,0.0,-1.0,-1.0,-1.0,-1.0,-1.0,-1.0,-1.0,-1.0,-1.0,0.015180018213451656,-0.020639498448114094,0.003062635253591124,0.0006,0.0,0.0,0.0,0.0006,0.0,0.0,0.0,0.0006,0.13646949462890623,-0.24660277099609373,9.746794958496093,0.01,0.0,0.0,0.0,0.01,0.0,0.0,0.0,0.01
1678822353.7657444,11902,1678822353,764939077,aquila2/os_imu,0.0,0.0,0.0,0.0,-1.0,-1.0,-1.0,-1.0,-1.0,-1.0,-1.0,-1.0,-1.0,-0.007190534943213943,0.0001331580545039619,0.0018642127630554665,0.0006,0.0,0.0,0.0,0.0006,0.0,0.0,0.0,0.0006,0.33039982910156246,-0.0526724365234375,10.038887561035155,0.01,0.0,0.0,0.0,0.01,0.0,0.0,0.0,0.01
1678822353.7764428,11903,1678822353,774939124,aquila2/os_imu,0.0,0.0,0.0,0.0,-1.0,-1.0,-1.0,-1.0,-1.0,-1.0,-1.0,-1.0,-1.0,-0.020639498448114094,-0.006125270507182248,0.007190534943213943,0.0006,0.0,0.0,0.0,0.0006,0.0,0.0,0.0,0.0006,0.30885201416015623,-0.011971008300781249,9.873687646484374,0.01,0.0,0.0,0.0,0.01,0.0,0.0,0.0,0.01
1678822353.7860248,11904,1678822353,784955560,aquila2/os_imu,0.0,0.0,0.0,0.0,-1.0,-1.0,-1.0,-1.0,-1.0,-1.0,-1.0,-1.0,-1.0,-0.014913702104443732,-0.00972053797878922,-0.0001331580545039619,0.0006,0.0,0.0,0.0,0.0006,0.0,0.0,0.0,0.0006,0.2059013427734375,-0.584185205078125,9.907206469726562,0.01,0.0,0.0,0.0,0.01,0.0,0.0,0.0,0.01
1678822353.7967238,11905,1678822353,794955498,aquila2/os_imu,0.0,0.0,0.0,0.0,-1.0,-1.0,-1.0,-1.0,-1.0,-1.0,-1.0,-1.0,-1.0,-0.003728425526110933,0.003728425526110933,0.001331580545039619,0.0006,0.0,0.0,0.0,0.0006,0.0,0.0,0.0,0.0006,0.24660277099609373,-0.6536170532226562,9.955090502929687,0.01,0.0,0.0,0.0,0.01,0.0,0.0,0.0,0.01
1678822353.8063262,11906,1678822353,804958775,aquila2/os_imu,0.0,0.0,0.0,0.0,-1.0,-1.0,-1.0,-1.0,-1.0,-1.0,-1.0,-1.0,-1.0,0.010519486305812991,-0.004127899689622819,0.002663161090079238,0.0006,0.0,0.0,0.0,0.0006,0.0,0.0,0.0,0.0006,0.105344873046875,-0.3687070556640625,9.715670336914062,0.01,0.0,0.0,0.0,0.01,0.0,0.0,0.0,0.01
1678822353.8156033,11907,1678822353,814958618,aquila2/os_imu,0.0,0.0,0.0,0.0,-1.0,-1.0,-1.0,-1.0,-1.0,-1.0,-1.0,-1.0,-1.0,0.0015978966540475428,-0.017843179303530896,-0.0022636869265673524,0.0006,0.0,0.0,0.0,0.0006,0.0,0.0,0.0,0.0006,0.10295067138671875,-0.09576806640624999,10.177751257324218,0.01,0.0,0.0,0.0,0.01,0.0,0.0,0.0,0.01
1678822353.8266706,11908,1678822353,824976081,aquila2/os_imu,0.0,0.0,0.0,0.0,-1.0,-1.0,-1.0,-1.0,-1.0,-1.0,-1.0,-1.0,-1.0,-0.017576863194522972,-0.0042610577441267805,0.003062635253591124,0.0006,0.0,0.0,0.0,0.0006,0.0,0.0,0.0,0.0006,0.40940848388671874,-0.21068974609375,9.828197814941406,0.01,0.0,0.0,0.0,0.01,0.0,0.0,0.0,0.01
1678822353.8359437,11909,1678822353,834978414,aquila2/os_imu,0.0,0.0,0.0,0.0,-1.0,-1.0,-1.0,-1.0,-1.0,-1.0,-1.0,-1.0,-1.0,-0.014114753777419962,-0.003062635253591124,0.008122641324741676,0.0006,0.0,0.0,0.0,0.0006,0.0,0.0,0.0,0.0006,0.3854664672851562,-0.6296750366210937,9.713276135253906,0.01,0.0,0.0,0.0,0.01,0.0,0.0,0.0,0.01
1678822353.846901,11910,1678822353,844978441,aquila2/os_imu,0.0,0.0,0.0,0.0,-1.0,-1.0,-1.0,-1.0,-1.0,-1.0,-1.0,-1.0,-1.0,-0.0011984224905356572,-0.00905474770626941,-0.0006657902725198095,0.0006,0.0,0.0,0.0,0.0006,0.0,0.0,0.0,0.0006,0.05985504150390625,-0.4285620971679687,9.770736975097655,0.01,0.0,0.0,0.0,0.01,0.0,0.0,0.0,0.01
1678822353.85612,11911,1678822353,854996272,aquila2/os_imu,0.0,0.0,0.0,0.0,-1.0,-1.0,-1.0,-1.0,-1.0,-1.0,-1.0,-1.0,-1.0,0.012117382959860534,-0.0022636869265673524,-0.003062635253591124,0.0006,0.0,0.0,0.0,0.0006,0.0,0.0,0.0,0.0006,0.3399766357421875,-0.46686932373046874,9.612719665527344,0.01,0.0,0.0,0.0,0.01,0.0,0.0,0.0,0.01
1678822353.8657298,11912,1678822353,864996134,aquila2/os_imu,0.0,0.0,0.0,0.0,-1.0,-1.0,-1.0,-1.0,-1.0,-1.0,-1.0,-1.0,-1.0,-0.004527373853134705,-0.007989483270237714,-0.0010652644360316951,0.0006,0.0,0.0,0.0,0.0006,0.0,0.0,0.0,0.0006,0.3711012573242187,-0.14125789794921875,9.974244116210937,0.01,0.0,0.0,0.0,0.01,0.0,0.0,0.0,0.01
1678822353.8764164,11913,1678822353,874997687,aquila2/os_imu,0.0,0.0,0.0,0.0,-1.0,-1.0,-1.0,-1.0,-1.0,-1.0,-1.0,-1.0,-1.0,-0.018508969576050704,-0.007590009106725828,0.003728425526110933,0.0006,0.0,0.0,0.0,0.0006,0.0,0.0,0.0,0.0006,0.5147533569335937,0.0143652099609375,9.785102185058593,0.01,0.0,0.0,0.0,0.01,0.0,0.0,0.0,0.01
1678822353.886026,11914,1678822353,885016560,aquila2/os_imu,0.0,0.0,0.0,0.0,-1.0,-1.0,-1.0,-1.0,-1.0,-1.0,-1.0,-1.0,-1.0,-0.012783173232380343,0.005858954398174323,0.0049268480166465905,0.0006,0.0,0.0,0.0,0.0006,0.0,0.0,0.0,0.0006,0.3806780639648437,-0.6105214233398437,9.85692823486328,0.01,0.0,0.0,0.0,0.01,0.0,0.0,0.0,0.01
1678822353.8967812,11915,1678822353,895016717,aquila2/os_imu,0.0,0.0,0.0,0.0,-1.0,-1.0,-1.0,-1.0,-1.0,-1.0,-1.0,-1.0,-1.0,-0.0014647385995435807,0.0,0.006391586616190171,0.0006,0.0,0.0,0.0,0.0006,0.0,0.0,0.0,0.0006,0.21068974609375,-0.38307226562499996,9.746794958496093,0.01,0.0,0.0,0.0,0.01,0.0,0.0,0.0,0.01
1678822353.906326,11916,1678822353,905017620,aquila2/os_imu,0.0,0.0,0.0,0.0,-1.0,-1.0,-1.0,-1.0,-1.0,-1.0,-1.0,-1.0,-1.0,0.011451592687340723,-0.013715279613908078,0.00692421883420602,0.0006,0.0,0.0,0.0,0.0006,0.0,0.0,0.0,0.0006,0.1580173095703125,-0.21308394775390624,9.65342109375,0.01,0.0,0.0,0.0,0.01,0.0,0.0,0.0,0.01
1678822353.9155362,11917,1678822353,915017135,aquila2/os_imu,0.0,0.0,0.0,0.0,-1.0,-1.0,-1.0,-1.0,-1.0,-1.0,-1.0,-1.0,-1.0,0.0006657902725198095,-0.0015978966540475428,-0.002663161090079238,0.0006,0.0,0.0,0.0,0.0006,0.0,0.0,0.0,0.0006,0.19871873779296872,0.07422025146484375,9.952696301269532,0.01,0.0,0.0,0.0,0.01,0.0,0.0,0.0,0.01
1678822353.92651,11918,1678822353,925036960,aquila2/os_imu,0.0,0.0,0.0,0.0,-1.0,-1.0,-1.0,-1.0,-1.0,-1.0,-1.0,-1.0,-1.0,-0.01890844373956259,-0.008655273542757524,0.00625842856168621,0.0006,0.0,0.0,0.0,0.0006,0.0,0.0,0.0,0.0006,0.46686932373046874,-0.15562310791015624,9.849745629882811,0.01,0.0,0.0,0.0,0.01,0.0,0.0,0.0,0.01
1678822353.9359152,11919,1678822353,935037398,aquila2/os_imu,0.0,0.0,0.0,0.0,-1.0,-1.0,-1.0,-1.0,-1.0,-1.0,-1.0,-1.0,-1.0,-0.013049489341388266,0.008255799379245638,-0.0001331580545039619,0.0006,0.0,0.0,0.0,0.0006,0.0,0.0,0.0,0.0006,0.258573779296875,-0.8044517578125,9.816226806640625,0.01,0.0,0.0,0.0,0.01,0.0,0.0,0.0,0.01
1678822353.9468431,11920,1678822353,945037289,aquila2/os_imu,0.0,0.0,0.0,0.0,-1.0,-1.0,-1.0,-1.0,-1.0,-1.0,-1.0,-1.0,-1.0,0.0015978966540475428,0.0055926382891664,0.006524744670694133,0.0006,0.0,0.0,0.0,0.0006,0.0,0.0,0.0,0.0006,0.34237083740234375,-0.612915625,9.756371765136718,0.01,0.0,0.0,0.0,0.01,0.0,0.0,0.0,0.01
1678822353.9561818,11921,1678822353,955057142,aquila2/os_imu,0.0,0.0,0.0,0.0,-1.0,-1.0,-1.0,-1.0,-1.0,-1.0,-1.0,-1.0,-1.0,0.013981595722916,-0.010519486305812991,0.006524744670694133,0.0006,0.0,0.0,0.0,0.0006,0.0,0.0,0.0,0.0006,0.3854664672851562,-0.3950432739257812,9.751583361816406,0.01,0.0,0.0,0.0,0.01,0.0,0.0,0.0,0.01
1678822353.9657044,11922,1678822353,965057166,aquila2/os_imu,0.0,0.0,0.0,0.0,-1.0,-1.0,-1.0,-1.0,-1.0,-1.0,-1.0,-1.0,-1.0,-0.0023968449810713144,-0.019307917903074477,0.003062635253591124,0.0006,0.0,0.0,0.0,0.0006,0.0,0.0,0.0,0.0006,0.21308394775390624,-0.21308394775390624,9.916783276367187,0.01,0.0,0.0,0.0,0.01,0.0,0.0,0.0,0.01
1678822353.9764683,11923,1678822353,975057636,aquila2/os_imu,0.0,0.0,0.0,0.0,-1.0,-1.0,-1.0,-1.0,-1.0,-1.0,-1.0,-1.0,-1.0,-0.024501082028728992,-0.002530003035575276,0.0002663161090079238,0.0006,0.0,0.0,0.0,0.0006,0.0,0.0,0.0,0.0006,0.37828386230468747,0.040701428222656245,9.708487731933593,0.01,0.0,0.0,0.0,0.01,0.0,0.0,0.0,0.01
1678822353.985883,11924,1678822353,985057734,aquila2/os_imu,0.0,0.0,0.0,0.0,-1.0,-1.0,-1.0,-1.0,-1.0,-1.0,-1.0,-1.0,-1.0,-0.014381069886427886,-0.003062635253591124,0.0003994741635118857,0.0006,0.0,0.0,0.0,0.0006,0.0,0.0,0.0,0.0006,0.45010991210937495,-0.3327940307617187,9.8449572265625,0.01,0.0,0.0,0.0,0.01,0.0,0.0,0.0,0.01
1678822353.9966686,11925,1678822353,995076970,aquila2/os_imu,0.0,0.0,0.0,0.0,-1.0,-1.0,-1.0,-1.0,-1.0,-1.0,-1.0,-1.0,-1.0,0.00625842856168621,0.0031957933080950856,0.009454221869781294,0.0006,0.0,0.0,0.0,0.0006,0.0,0.0,0.0,0.0006,0.24899697265624998,-0.43574470214843747,9.909600671386718,0.01,0.0,0.0,0.0,0.01,0.0,0.0,0.0,0.01
1678822354.0061386,11926,1678822354,5077940,aquila2/os_imu,0.0,0.0,0.0,0.0,-1.0,-1.0,-1.0,-1.0,-1.0,-1.0,-1.0,-1.0,-1.0,0.011451592687340723,-0.01038632825130903,0.0049268480166465905,0.0006,0.0,0.0,0.0,0.0006,0.0,0.0,0.0,0.0006,0.11013327636718749,-0.3399766357421875,9.861716638183593,0.01,0.0,0.0,0.0,0.01,0.0,0.0,0.0,0.01
1678822354.0155623,11927,1678822354,15078026,aquila2/os_imu,0.0,0.0,0.0,0.0,-1.0,-1.0,-1.0,-1.0,-1.0,-1.0,-1.0,-1.0,-1.0,-0.0010652644360316951,-0.014514227940931847,0.0029294771990871615,0.0006,0.0,0.0,0.0,0.0006,0.0,0.0,0.0,0.0006,0.430956298828125,0.06943184814453125,9.983820922851562,0.01,0.0,0.0,0.0,0.01,0.0,0.0,0.0,0.01
1678822354.0265548,11928,1678822354,25096594,aquila2/os_imu,0.0,0.0,0.0,0.0,-1.0,-1.0,-1.0,-1.0,-1.0,-1.0,-1.0,-1.0,-1.0,-0.014514227940931847,-0.014514227940931847,0.005725796343670361,0.0006,0.0,0.0,0.0,0.0006,0.0,0.0,0.0,0.0006,0.5123591552734374,-0.13407529296874998,9.892841259765625,0.01,0.0,0.0,0.0,0.01,0.0,0.0,0.0,0.01
1678822354.035863,11929,1678822354,35096333,aquila2/os_imu,0.0,0.0,0.0,0.0,-1.0,-1.0,-1.0,-1.0,-1.0,-1.0,-1.0,-1.0,-1.0,-0.014647385995435809,-0.011451592687340723,0.005459480234662438,0.0006,0.0,0.0,0.0,0.0006,0.0,0.0,0.0,0.0006,0.1771709228515625,-0.5985504150390625,9.80665,0.01,0.0,0.0,0.0,0.01,0.0,0.0,0.0,0.01
1678822354.0468886,11930,1678822354,45098164,aquila2/os_imu,0.0,0.0,0.0,0.0,-1.0,-1.0,-1.0,-1.0,-1.0,-1.0,-1.0,-1.0,-1.0,0.0015978966540475428,0.0009321063815277333,0.004660531907638666,0.0006,0.0,0.0,0.0,0.0006,0.0,0.0,0.0,0.0006,0.469263525390625,-0.4644751220703125,9.756371765136718,0.01,0.0,0.0,0.0,0.01,0.0,0.0,0.0,0.01
1678822354.0560827,11931,1678822354,55116292,aquila2/os_imu,0.0,0.0,0.0,0.0,-1.0,-1.0,-1.0,-1.0,-1.0,-1.0,-1.0,-1.0,-1.0,0.007723167161229791,-0.030493194481407273,0.0002663161090079238,0.0006,0.0,0.0,0.0,0.0006,0.0,0.0,0.0,0.0006,0.1484405029296875,-0.3758896606445312,9.835380419921874,0.01,0.0,0.0,0.0,0.01,0.0,0.0,0.0,0.01
1678822354.0670698,11932,1678822354,65116340,aquila2/os_imu,0.0,0.0,0.0,0.0,-1.0,-1.0,-1.0,-1.0,-1.0,-1.0,-1.0,-1.0,-1.0,-0.0015978966540475428,-0.013315805450396189,-0.004660531907638666,0.0006,0.0,0.0,0.0,0.0006,0.0,0.0,0.0,0.0006,0.023942016601562498,0.11731588134765625,10.046070166015625,0.01,0.0,0.0,0.0,0.01,0.0,0.0,0.0,0.01
1678822354.0764358,11933,1678822354,75118622,aquila2/os_imu,0.0,0.0,0.0,0.0,-1.0,-1.0,-1.0,-1.0,-1.0,-1.0,-1.0,-1.0,-1.0,-0.015046860158947694,-0.0010652644360316951,0.0007989483270237714,0.0006,0.0,0.0,0.0,0.0006,0.0,0.0,0.0,0.0006,0.430956298828125,-0.1149216796875,10.12507882080078,0.01,0.0,0.0,0.0,0.01,0.0,0.0,0.0,0.01
1678822354.0859675,11934,1678822354,85118870,aquila2/os_imu,0.0,0.0,0.0,0.0,-1.0,-1.0,-1.0,-1.0,-1.0,-1.0,-1.0,-1.0,-1.0,-0.01344896350490015,0.00905474770626941,-0.0023968449810713144,0.0006,0.0,0.0,0.0,0.0006,0.0,0.0,0.0,0.0006,0.40940848388671874,-0.49320554199218747,9.861716638183593,0.01,0.0,0.0,0.0,0.01,0.0,0.0,0.0,0.01
1678822354.0966258,11935,1678822354,95135943,aquila2/os_imu,0.0,0.0,0.0,0.0,-1.0,-1.0,-1.0,-1.0,-1.0,-1.0,-1.0,-1.0,-1.0,0.0027963191445832,0.005060006071150552,0.006524744670694133,0.0006,0.0,0.0,0.0,0.0006,0.0,0.0,0.0,0.0006,0.2537853759765625,-0.46208092041015625,9.677363110351562,0.01,0.0,0.0,0.0,0.01,0.0,0.0,0.0,0.01
1678822354.1061807,11936,1678822354,105138922,aquila2/os_imu,0.0,0.0,0.0,0.0,-1.0,-1.0,-1.0,-1.0,-1.0,-1.0,-1.0,-1.0,-1.0,0.010652644360316953,-0.011451592687340723,0.008788431597261486,0.0006,0.0,0.0,0.0,0.0006,0.0,0.0,0.0,0.0006,0.181959326171875,-0.2442085693359375,9.957484704589843,0.01,0.0,0.0,0.0,0.01,0.0,0.0,0.0,0.01
1678822354.1170487,11937,1678822354,115139154,aquila2/os_imu,0.0,0.0,0.0,0.0,-1.0,-1.0,-1.0,-1.0,-1.0,-1.0,-1.0,-1.0,-1.0,-0.004527373853134705,0.003062635253591124,0.0006657902725198095,0.0006,0.0,0.0,0.0,0.0006,0.0,0.0,0.0,0.0006,0.28969840087890625,-0.00239420166015625,10.1131078125,0.01,0.0,0.0,0.0,0.01,0.0,0.0,0.0,0.01
1678822354.1265132,11938,1678822354,125155588,aquila2/os_imu,0.0,0.0,0.0,0.0,-1.0,-1.0,-1.0,-1.0,-1.0,-1.0,-1.0,-1.0,-1.0,-0.02024002428460221,-0.0066579027251980945,0.011052118523828838,0.0006,0.0,0.0,0.0,0.0006,0.0,0.0,0.0,0.0006,0.3327940307617187,0.076614453125,9.907206469726562,0.01,0.0,0.0,0.0,0.01,0.0,0.0,0.0,0.01
1678822354.135764,11939,1678822354,135155372,aquila2/os_imu,0.0,0.0,0.0,0.0,-1.0,-1.0,-1.0,-1.0,-1.0,-1.0,-1.0,-1.0,-1.0,-0.011318434632836761,-0.011717908796348646,0.005060006071150552,0.0006,0.0,0.0,0.0,0.0006,0.0,0.0,0.0,0.0006,0.16759411621093748,-0.4261678955078125,10.019733947753906,0.01,0.0,0.0,0.0,0.01,0.0,0.0,0.0,0.01
1678822354.1467667,11940,1678822354,145159363,aquila2/os_imu,0.0,0.0,0.0,0.0,-1.0,-1.0,-1.0,-1.0,-1.0,-1.0,-1.0,-1.0,-1.0,-0.003728425526110933,-0.011451592687340723,0.010253170196805066,0.0006,0.0,0.0,0.0,0.0006,0.0,0.0,0.0,0.0006,0.3327940307617187,-0.4213794921875,9.8449572265625,0.01,0.0,0.0,0.0,0.01,0.0,0.0,0.0,0.01
1678822354.156085,11941,1678822354,155174826,aquila2/os_imu,0.0,0.0,0.0,0.0,-1.0,-1.0,-1.0,-1.0,-1.0,-1.0,-1.0,-1.0,-1.0,0.010785802414820914,-0.011451592687340723,0.0002663161090079238,0.0006,0.0,0.0,0.0,0.0006,0.0,0.0,0.0,0.0006,-0.04548983154296875,-0.2705447875976562,9.849745629882811,0.01,0.0,0.0,0.0,0.01,0.0,0.0,0.0,0.01
1678822354.1670175,11942,1678822354,165175186,aquila2/os_imu,0.0,0.0,0.0,0.0,-1.0,-1.0,-1.0,-1.0,-1.0,-1.0,-1.0,-1.0,-1.0,-0.007190534943213943,0.0055926382891664,-0.0023968449810713144,0.0006,0.0,0.0,0.0,0.0006,0.0,0.0,0.0,0.0006,0.13407529296874998,0.033518823242187495,10.110713610839843,0.01,0.0,0.0,0.0,0.01,0.0,0.0,0.0,0.01
1678822354.1764069,11943,1678822354,175179624,aquila2/os_imu,0.0,0.0,0.0,0.0,-1.0,-1.0,-1.0,-1.0,-1.0,-1.0,-1.0,-1.0,-1.0,-0.015579492376963544,0.0014647385995435807,0.0003994741635118857,0.0006,0.0,0.0,0.0,0.0006,0.0,0.0,0.0,0.0006,0.2753331909179687,-0.19153613281249998,10.141838232421874,0.01,0.0,0.0,0.0,0.01,0.0,0.0,0.0,0.01
1678822354.1858053,11944,1678822354,185179730,aquila2/os_imu,0.0,0.0,0.0,0.0,-1.0,-1.0,-1.0,-1.0,-1.0,-1.0,-1.0,-1.0,-1.0,-0.009853696033293181,-0.0083889574337496,-0.00346210941710301,0.0006,0.0,0.0,0.0,0.0006,0.0,0.0,0.0,0.0006,0.0383072265625,-0.4860229370117187,9.86411083984375,0.01,0.0,0.0,0.0,0.01,0.0,0.0,0.0,0.01
1678822354.1965742,11945,1678822354,195194898,aquila2/os_imu,0.0,0.0,0.0,0.0,-1.0,-1.0,-1.0,-1.0,-1.0,-1.0,-1.0,-1.0,-1.0,-0.0033289513625990473,0.0031957933080950856,0.002663161090079238,0.0006,0.0,0.0,0.0,0.0006,0.0,0.0,0.0,0.0006,0.28969840087890625,-0.6105214233398437,10.038887561035155,0.01,0.0,0.0,0.0,0.01,0.0,0.0,0.0,0.01
1678822354.206052,11946,1678822354,205194794,aquila2/os_imu,0.0,0.0,0.0,0.0,-1.0,-1.0,-1.0,-1.0,-1.0,-1.0,-1.0,-1.0,-1.0,0.02090581455712202,-0.004127899689622819,0.005459480234662438,0.0006,0.0,0.0,0.0,0.0006,0.0,0.0,0.0,0.0006,0.10773907470703124,-0.229843359375,10.101136804199218,0.01,0.0,0.0,0.0,0.01,0.0,0.0,0.0,0.01
1678822354.2170312,11947,1678822354,215200043,aquila2/os_imu,0.0,0.0,0.0,0.0,-1.0,-1.0,-1.0,-1.0,-1.0,-1.0,-1.0,-1.0,-1.0,0.002530003035575276,-0.01265001517787638,-0.0003994741635118857,0.0006,0.0,0.0,0.0,0.0006,0.0,0.0,0.0,0.0006,0.08858546142578125,-0.055066638183593745,10.04846436767578,0.01,0.0,0.0,0.0,0.01,0.0,0.0,0.0,0.01
1678822354.2263944,11948,1678822354,225214602,aquila2/os_imu,0.0,0.0,0.0,0.0,-1.0,-1.0,-1.0,-1.0,-1.0,-1.0,-1.0,-1.0,-1.0,-0.01944107595757844,-0.008522115488253561,0.007856325215733753,0.0006,0.0,0.0,0.0,0.0006,0.0,0.0,0.0,0.0006,0.1867477294921875,0.033518823242187495,9.797073193359374,0.01,0.0,0.0,0.0,0.01,0.0,0.0,0.0,0.01
1678822354.235769,11949,1678822354,235214013,aquila2/os_imu,0.0,0.0,0.0,0.0,-1.0,-1.0,-1.0,-1.0,-1.0,-1.0,-1.0,-1.0,-1.0,-0.015845808485971467,0.0005326322180158476,0.0055926382891664,0.0006,0.0,0.0,0.0,0.0006,0.0,0.0,0.0,0.0006,0.29448680419921874,-0.12689268798828124,9.9981861328125,0.01,0.0,0.0,0.0,0.01,0.0,0.0,0.0,0.01
1678822354.2466743,11950,1678822354,245220340,aquila2/os_imu,0.0,0.0,0.0,0.0,-1.0,-1.0,-1.0,-1.0,-1.0,-1.0,-1.0,-1.0,-1.0,0.002530003035575276,-0.0005326322180158476,-0.0018642127630554665,0.0006,0.0,0.0,0.0,0.0006,0.0,0.0,0.0,0.0006,0.15083470458984374,-0.4333505004882812,10.034099157714843,0.01,0.0,0.0,0.0,0.01,0.0,0.0,0.0,0.01
1678822354.2560084,11951,1678822354,255220442,aquila2/os_imu,0.0,0.0,0.0,0.0,-1.0,-1.0,-1.0,-1.0,-1.0,-1.0,-1.0,-1.0,-1.0,0.006391586616190171,-0.005326322180158476,0.0009321063815277333,0.0006,0.0,0.0,0.0,0.0006,0.0,0.0,0.0,0.0006,-0.031124621582031248,-0.1005564697265625,9.665392102050781,0.01,0.0,0.0,0.0,0.01,0.0,0.0,0.0,0.01
1678822354.2668931,11952,1678822354,265234210,aquila2/os_imu,0.0,0.0,0.0,0.0,-1.0,-1.0,-1.0,-1.0,-1.0,-1.0,-1.0,-1.0,-1.0,0.0019973708175594286,-0.0038615835806148956,0.002530003035575276,0.0006,0.0,0.0,0.0,0.0006,0.0,0.0,0.0,0.0006,0.17238251953125,0.011971008300781249,10.196904870605469,0.01,0.0,0.0,0.0,0.01,0.0,0.0,0.0,0.01
1678822354.2763894,11953,1678822354,275240252,aquila2/os_imu,0.0,0.0,0.0,0.0,-1.0,-1.0,-1.0,-1.0,-1.0,-1.0,-1.0,-1.0,-1.0,-0.021305288720633905,-0.0014647385995435807,0.003994741635118857,0.0006,0.0,0.0,0.0,0.0006,0.0,0.0,0.0,0.0006,0.13646949462890623,-0.00718260498046875,9.976638317871092,0.01,0.0,0.0,0.0,0.01,0.0,0.0,0.0,0.01
1678822354.285749,11954,1678822354,285240726,aquila2/os_imu,0.0,0.0,0.0,0.0,-1.0,-1.0,-1.0,-1.0,-1.0,-1.0,-1.0,-1.0,-1.0,-0.01251685712337242,-0.0011984224905356572,0.0021305288720633903,0.0006,0.0,0.0,0.0,0.0006,0.0,0.0,0.0,0.0006,0.105344873046875,-0.565031591796875,9.698910925292969,0.01,0.0,0.0,0.0,0.01,0.0,0.0,0.0,0.01
1678822354.296638,11955,1678822354,295253886,aquila2/os_imu,0.0,0.0,0.0,0.0,-1.0,-1.0,-1.0,-1.0,-1.0,-1.0,-1.0,-1.0,-1.0,0.0022636869265673524,0.0027963191445832,0.003994741635118857,0.0006,0.0,0.0,0.0,0.0006,0.0,0.0,0.0,0.0006,0.2154781494140625,-0.5482721801757812,10.036493359375,0.01,0.0,0.0,0.0,0.01,0.0,0.0,0.0,0.01
1678822354.306146,11956,1678822354,305253790,aquila2/os_imu,0.0,0.0,0.0,0.0,-1.0,-1.0,-1.0,-1.0,-1.0,-1.0,-1.0,-1.0,-1.0,0.00346210941710301,-0.021172130666129944,-0.0005326322180158476,0.0006,0.0,0.0,0.0,0.0006,0.0,0.0,0.0,0.0006,0.016759411621093748,-0.258573779296875,9.698910925292969,0.01,0.0,0.0,0.0,0.01,0.0,0.0,0.0,0.01
1678822354.3170185,11957,1678822354,315261140,aquila2/os_imu,0.0,0.0,0.0,0.0,-1.0,-1.0,-1.0,-1.0,-1.0,-1.0,-1.0,-1.0,-1.0,0.0018642127630554665,-0.007856325215733753,-0.003994741635118857,0.0006,0.0,0.0,0.0,0.0006,0.0,0.0,0.0,0.0006,-0.09576806640624999,0.016759411621093748,9.919177478027343,0.01,0.0,0.0,0.0,0.01,0.0,0.0,0.0,0.01
1678822354.326502,11958,1678822354,325273592,aquila2/os_imu,0.0,0.0,0.0,0.0,-1.0,-1.0,-1.0,-1.0,-1.0,-1.0,-1.0,-1.0,-1.0,-0.021837920938649752,-0.017044230976507122,0.0005326322180158476,0.0006,0.0,0.0,0.0,0.0006,0.0,0.0,0.0,0.0006,0.20829554443359374,-0.08140285644531249,9.928754284667969,0.01,0.0,0.0,0.0,0.01,0.0,0.0,0.0,0.01
1678822354.3356354,11959,1678822354,335273587,aquila2/os_imu,0.0,0.0,0.0,0.0,-1.0,-1.0,-1.0,-1.0,-1.0,-1.0,-1.0,-1.0,-1.0,-0.004394215798630743,-0.009853696033293181,0.00972053797878922,0.0006,0.0,0.0,0.0,0.0006,0.0,0.0,0.0,0.0006,0.19393033447265623,-0.2537853759765625,9.763554370117188,0.01,0.0,0.0,0.0,0.01,0.0,0.0,0.0,0.01
1678822354.3467076,11960,1678822354,345281318,aquila2/os_imu,0.0,0.0,0.0,0.0,-1.0,-1.0,-1.0,-1.0,-1.0,-1.0,-1.0,-1.0,-1.0,0.001731054708551505,-0.007989483270237714,0.005193164125654515,0.0006,0.0,0.0,0.0,0.0006,0.0,0.0,0.0,0.0006,0.06464344482421874,-0.5051765502929687,9.967061511230469,0.01,0.0,0.0,0.0,0.01,0.0,0.0,0.0,0.01
1678822354.3560364,11961,1678822354,355281408,aquila2/os_imu,0.0,0.0,0.0,0.0,-1.0,-1.0,-1.0,-1.0,-1.0,-1.0,-1.0,-1.0,-1.0,0.008655273542757524,-0.010918960469324876,0.004394215798630743,0.0006,0.0,0.0,0.0,0.0006,0.0,0.0,0.0,0.0006,0.22026655273437498,-0.055066638183593745,9.581595043945311,0.01,0.0,0.0,0.0,0.01,0.0,0.0,0.0,0.01
1678822354.3669586,11962,1678822354,365293253,aquila2/os_imu,0.0,0.0,0.0,0.0,-1.0,-1.0,-1.0,-1.0,-1.0,-1.0,-1.0,-1.0,-1.0,-0.0010652644360316951,-0.021837920938649752,0.0006657902725198095,0.0006,0.0,0.0,0.0,0.0006,0.0,0.0,0.0,0.0006,0.02154781494140625,0.09576806640624999,9.873687646484374,0.01,0.0,0.0,0.0,0.01,0.0,0.0,0.0,0.01
1678822354.3762956,11963,1678822354,375301612,aquila2/os_imu,0.0,0.0,0.0,0.0,-1.0,-1.0,-1.0,-1.0,-1.0,-1.0,-1.0,-1.0,-1.0,-0.02157160482964183,-0.0010652644360316951,0.006524744670694133,0.0006,0.0,0.0,0.0,0.0006,0.0,0.0,0.0,0.0006,0.3399766357421875,-0.07900865478515624,9.97903251953125,0.01,0.0,0.0,0.0,0.01,0.0,0.0,0.0,0.01
1678822354.3879886,11964,1678822354,385301765,aquila2/os_imu,0.0,0.0,0.0,0.0,-1.0,-1.0,-1.0,-1.0,-1.0,-1.0,-1.0,-1.0,-1.0,-0.014114753777419962,-0.004127899689622819,0.007190534943213943,0.0006,0.0,0.0,0.0,0.0006,0.0,0.0,0.0,0.0006,0.181959326171875,-0.29448680419921874,9.76116016845703,0.01,0.0,0.0,0.0,0.01,0.0,0.0,0.0,0.01
1678822354.3965306,11965,1678822354,395312898,aquila2/os_imu,0.0,0.0,0.0,0.0,-1.0,-1.0,-1.0,-1.0,-1.0,-1.0,-1.0,-1.0,-1.0,0.001331580545039619,-0.007590009106725828,0.004394215798630743,0.0006,0.0,0.0,0.0,0.0006,0.0,0.0,0.0,0.0006,0.18914193115234373,-0.6272808349609375,9.794678991699218,0.01,0.0,0.0,0.0,0.01,0.0,0.0,0.0,0.01
1678822354.4061067,11966,1678822354,405312792,aquila2/os_imu,0.0,0.0,0.0,0.0,-1.0,-1.0,-1.0,-1.0,-1.0,-1.0,-1.0,-1.0,-1.0,0.009986854087797143,-0.021172130666129944,0.00625842856168621,0.0006,0.0,0.0,0.0,0.0006,0.0,0.0,0.0,0.0006,0.076614453125,-0.29927520751953124,9.935936889648437,0.01,0.0,0.0,0.0,0.01,0.0,0.0,0.0,0.01
1678822354.417006,11967,1678822354,415322028,aquila2/os_imu,0.0,0.0,0.0,0.0,-1.0,-1.0,-1.0,-1.0,-1.0,-1.0,-1.0,-1.0,-1.0,-0.00625842856168621,-0.009853696033293181,0.0029294771990871615,0.0006,0.0,0.0,0.0,0.0006,0.0,0.0,0.0,0.0006,-0.009576806640625,0.13646949462890623,9.888052856445311,0.01,0.0,0.0,0.0,0.01,0.0,0.0,0.0,0.01
1678822354.4264312,11968,1678822354,425322130,aquila2/os_imu,0.0,0.0,0.0,0.0,-1.0,-1.0,-1.0,-1.0,-1.0,-1.0,-1.0,-1.0,-1.0,-0.012916331286884304,-0.003062635253591124,-0.001731054708551505,0.0006,0.0,0.0,0.0,0.0006,0.0,0.0,0.0,0.0006,0.3112462158203125,-0.1771709228515625,10.046070166015625,0.01,0.0,0.0,0.0,0.01,0.0,0.0,0.0,0.01
1678822354.4378688,11969,1678822354,435332518,aquila2/os_imu,0.0,0.0,0.0,0.0,-1.0,-1.0,-1.0,-1.0,-1.0,-1.0,-1.0,-1.0,-1.0,-0.008655273542757524,-0.02077265650261806,0.006791060779702058,0.0006,0.0,0.0,0.0,0.0006,0.0,0.0,0.0,0.0006,0.3687070556640625,-0.565031591796875,9.97184991455078,0.01,0.0,0.0,0.0,0.01,0.0,0.0,0.0,0.01
1678822354.4466705,11970,1678822354,445342330,aquila2/os_imu,0.0,0.0,0.0,0.0,-1.0,-1.0,-1.0,-1.0,-1.0,-1.0,-1.0,-1.0,-1.0,-0.0022636869265673524,0.00346210941710301,-0.0015978966540475428,0.0006,0.0,0.0,0.0,0.0006,0.0,0.0,0.0,0.0006,0.2346317626953125,-0.5123591552734374,9.935936889648437,0.01,0.0,0.0,0.0,0.01,0.0,0.0,0.0,0.01
1678822354.455948,11971,1678822354,455342442,aquila2/os_imu,0.0,0.0,0.0,0.0,-1.0,-1.0,-1.0,-1.0,-1.0,-1.0,-1.0,-1.0,-1.0,0.018508969576050704,-0.02157160482964183,0.0009321063815277333,0.0006,0.0,0.0,0.0,0.0006,0.0,0.0,0.0,0.0006,0.143652099609375,-0.296881005859375,9.832986218261718,0.01,0.0,0.0,0.0,0.01,0.0,0.0,0.0,0.01
1678822354.4669154,11972,1678822354,465352014,aquila2/os_imu,0.0,0.0,0.0,0.0,-1.0,-1.0,-1.0,-1.0,-1.0,-1.0,-1.0,-1.0,-1.0,-0.0021305288720633903,0.0001331580545039619,0.002530003035575276,0.0006,0.0,0.0,0.0,0.0006,0.0,0.0,0.0,0.0006,0.29927520751953124,-0.15322890625,10.115502014160155,0.01,0.0,0.0,0.0,0.01,0.0,0.0,0.0,0.01
1678822354.476225,11973,1678822354,475351622,aquila2/os_imu,0.0,0.0,0.0,0.0,-1.0,-1.0,-1.0,-1.0,-1.0,-1.0,-1.0,-1.0,-1.0,-0.011584750741844684,-0.0038615835806148956,0.00346210941710301,0.0006,0.0,0.0,0.0,0.0006,0.0,0.0,0.0,0.0006,0.36391865234375,-0.033518823242187495,10.180145458984374,0.01,0.0,0.0,0.0,0.01,0.0,0.0,0.0,0.01
1678822354.4878807,11974,1678822354,485362794,aquila2/os_imu,0.0,0.0,0.0,0.0,-1.0,-1.0,-1.0,-1.0,-1.0,-1.0,-1.0,-1.0,-1.0,-0.015046860158947694,0.014114753777419962,0.004394215798630743,0.0006,0.0,0.0,0.0,0.0006,0.0,0.0,0.0,0.0006,0.201112939453125,-0.28969840087890625,9.93354268798828,0.01,0.0,0.0,0.0,0.01,0.0,0.0,0.0,0.01
1678822354.4965494,11975,1678822354,495371888,aquila2/os_imu,0.0,0.0,0.0,0.0,-1.0,-1.0,-1.0,-1.0,-1.0,-1.0,-1.0,-1.0,-1.0,0.0002663161090079238,0.00905474770626941,0.0009321063815277333,0.0006,0.0,0.0,0.0,0.0006,0.0,0.0,0.0,0.0006,0.19632453613281248,-0.6009446166992187,10.050858569335936,0.01,0.0,0.0,0.0,0.01,0.0,0.0,0.0,0.01
1678822354.505957,11976,1678822354,505371822,aquila2/os_imu,0.0,0.0,0.0,0.0,-1.0,-1.0,-1.0,-1.0,-1.0,-1.0,-1.0,-1.0,-1.0,0.007057376888709981,0.0002663161090079238,0.00905474770626941,0.0006,0.0,0.0,0.0,0.0006,0.0,0.0,0.0,0.0006,0.2537853759765625,-0.15562310791015624,9.79946739501953,0.01,0.0,0.0,0.0,0.01,0.0,0.0,0.0,0.01
1678822354.5169384,11977,1678822354,515383045,aquila2/os_imu,0.0,0.0,0.0,0.0,-1.0,-1.0,-1.0,-1.0,-1.0,-1.0,-1.0,-1.0,-1.0,0.0010652644360316951,-0.01810949541253882,0.001731054708551505,0.0006,0.0,0.0,0.0,0.0006,0.0,0.0,0.0,0.0006,0.19393033447265623,0.0,9.888052856445311,0.01,0.0,0.0,0.0,0.01,0.0,0.0,0.0,0.01
1678822354.5263777,11978,1678822354,525383128,aquila2/os_imu,0.0,0.0,0.0,0.0,-1.0,-1.0,-1.0,-1.0,-1.0,-1.0,-1.0,-1.0,-1.0,-0.012916331286884304,0.0,0.0,0.0006,0.0,0.0,0.0,0.0006,0.0,0.0,0.0,0.0006,0.17956512451171874,-0.22744915771484372,9.969455712890625,0.01,0.0,0.0,0.0,0.01,0.0,0.0,0.0,0.01
1678822354.5377948,11979,1678822354,535391839,aquila2/os_imu,0.0,0.0,0.0,0.0,-1.0,-1.0,-1.0,-1.0,-1.0,-1.0,-1.0,-1.0,-1.0,-0.014647385995435809,0.008522115488253561,0.004527373853134705,0.0006,0.0,0.0,0.0,0.0006,0.0,0.0,0.0,0.0006,0.22505495605468748,-0.5291185668945312,9.885658654785155,0.01,0.0,0.0,0.0,0.01,0.0,0.0,0.0,0.01
1678822354.546687,11980,1678822354,545403558,aquila2/os_imu,0.0,0.0,0.0,0.0,-1.0,-1.0,-1.0,-1.0,-1.0,-1.0,-1.0,-1.0,-1.0,-0.0031957933080950856,-0.0038615835806148956,-0.0031957933080950856,0.0006,0.0,0.0,0.0,0.0006,0.0,0.0,0.0,0.0006,0.21787235107421873,-0.7015010864257812,9.885658654785155,0.01,0.0,0.0,0.0,0.01,0.0,0.0,0.0,0.01
1678822354.5561688,11981,1678822354,555403648,aquila2/os_imu,0.0,0.0,0.0,0.0,-1.0,-1.0,-1.0,-1.0,-1.0,-1.0,-1.0,-1.0,-1.0,0.013315805450396189,-0.006524744670694133,0.006524744670694133,0.0006,0.0,0.0,0.0,0.0006,0.0,0.0,0.0,0.0006,0.009576806640625,-0.2059013427734375,9.8449572265625,0.01,0.0,0.0,0.0,0.01,0.0,0.0,0.0,0.01
1678822354.5670772,11982,1678822354,565411284,aquila2/os_imu,0.0,0.0,0.0,0.0,-1.0,-1.0,-1.0,-1.0,-1.0,-1.0,-1.0,-1.0,-1.0,-0.0,-0.0083889574337496,-0.001331580545039619,0.0006,0.0,0.0,0.0,0.0006,0.0,0.0,0.0,0.0006,0.04548983154296875,-0.21068974609375,9.897629663085937,0.01,0.0,0.0,0.0,0.01,0.0,0.0,0.0,0.01
1678822354.5763702,11983,1678822354,575411364,aquila2/os_imu,0.0,0.0,0.0,0.0,-1.0,-1.0,-1.0,-1.0,-1.0,-1.0,-1.0,-1.0,-1.0,-0.023835291756209184,-0.007057376888709981,-0.0014647385995435807,0.0006,0.0,0.0,0.0,0.0006,0.0,0.0,0.0,0.0006,0.21068974609375,-0.08858546142578125,9.947907897949218,0.01,0.0,0.0,0.0,0.01,0.0,0.0,0.0,0.01
1678822354.5879514,11984,1678822354,585423776,aquila2/os_imu,0.0,0.0,0.0,0.0,-1.0,-1.0,-1.0,-1.0,-1.0,-1.0,-1.0,-1.0,-1.0,-0.009986854087797143,-0.011451592687340723,0.00905474770626941,0.0006,0.0,0.0,0.0,0.0006,0.0,0.0,0.0,0.0006,0.2920926025390625,-0.13168109130859373,9.854534033203125,0.01,0.0,0.0,0.0,0.01,0.0,0.0,0.0,0.01
1678822354.596677,11985,1678822354,595431164,aquila2/os_imu,0.0,0.0,0.0,0.0,-1.0,-1.0,-1.0,-1.0,-1.0,-1.0,-1.0,-1.0,-1.0,-0.0,-0.012783173232380343,0.002530003035575276,0.0006,0.0,0.0,0.0,0.0006,0.0,0.0,0.0,0.0006,0.22026655273437498,-0.5195417602539062,9.9981861328125,0.01,0.0,0.0,0.0,0.01,0.0,0.0,0.0,0.01
1678822354.6061456,11986,1678822354,605431066,aquila2/os_imu,0.0,0.0,0.0,0.0,-1.0,-1.0,-1.0,-1.0,-1.0,-1.0,-1.0,-1.0,-1.0,0.008655273542757524,-0.02942793004537558,0.0021305288720633903,0.0006,0.0,0.0,0.0,0.0006,0.0,0.0,0.0,0.0006,0.3399766357421875,-0.023942016601562498,9.974244116210937,0.01,0.0,0.0,0.0,0.01,0.0,0.0,0.0,0.01
1678822354.6171176,11987,1678822354,615444288,aquila2/os_imu,0.0,0.0,0.0,0.0,-1.0,-1.0,-1.0,-1.0,-1.0,-1.0,-1.0,-1.0,-1.0,-0.003994741635118857,-0.01611212459497939,0.0018642127630554665,0.0006,0.0,0.0,0.0,0.0006,0.0,0.0,0.0,0.0006,0.3758896606445312,-0.028730419921875,9.81862100830078,0.01,0.0,0.0,0.0,0.01,0.0,0.0,0.0,0.01
1678822354.6265173,11988,1678822354,625444350,aquila2/os_imu,0.0,0.0,0.0,0.0,-1.0,-1.0,-1.0,-1.0,-1.0,-1.0,-1.0,-1.0,-1.0,-0.021971078993153714,-0.007989483270237714,0.0027963191445832,0.0006,0.0,0.0,0.0,0.0006,0.0,0.0,0.0,0.0006,0.36391865234375,0.0383072265625,9.97903251953125,0.01,0.0,0.0,0.0,0.01,0.0,0.0,0.0,0.01
1678822354.6380386,11989,1678822354,635450855,aquila2/os_imu,0.0,0.0,0.0,0.0,-1.0,-1.0,-1.0,-1.0,-1.0,-1.0,-1.0,-1.0,-1.0,-0.015313176267955617,0.0033289513625990473,0.006125270507182248,0.0006,0.0,0.0,0.0,0.0006,0.0,0.0,0.0,0.0006,0.2705447875976562,-0.28012159423828126,9.828197814941406,0.01,0.0,0.0,0.0,0.01,0.0,0.0,0.0,0.01
1678822354.6468542,11990,1678822354,645450662,aquila2/os_imu,0.0,0.0,0.0,0.0,-1.0,-1.0,-1.0,-1.0,-1.0,-1.0,-1.0,-1.0,-1.0,0.0029294771990871615,0.0005326322180158476,0.005326322180158476,0.0006,0.0,0.0,0.0,0.0006,0.0,0.0,0.0,0.0006,0.09816226806640624,-0.7038952880859375,9.888052856445311,0.01,0.0,0.0,0.0,0.01,0.0,0.0,0.0,0.01
1678822354.6561024,11991,1678822354,655464434,aquila2/os_imu,0.0,0.0,0.0,0.0,-1.0,-1.0,-1.0,-1.0,-1.0,-1.0,-1.0,-1.0,-1.0,0.0073236929977179045,-0.012383699068868458,0.0022636869265673524,0.0006,0.0,0.0,0.0,0.0006,0.0,0.0,0.0,0.0006,0.1149216796875,-0.20350714111328125,9.86411083984375,0.01,0.0,0.0,0.0,0.01,0.0,0.0,0.0,0.01
1678822354.6670206,11992,1678822354,665470462,aquila2/os_imu,0.0,0.0,0.0,0.0,-1.0,-1.0,-1.0,-1.0,-1.0,-1.0,-1.0,-1.0,-1.0,-0.00346210941710301,-0.020506340393610132,0.0001331580545039619,0.0006,0.0,0.0,0.0,0.0006,0.0,0.0,0.0,0.0006,-0.09337386474609374,0.0,9.816226806640625,0.01,0.0,0.0,0.0,0.01,0.0,0.0,0.0,0.01
1678822354.676382,11993,1678822354,675470358,aquila2/os_imu,0.0,0.0,0.0,0.0,-1.0,-1.0,-1.0,-1.0,-1.0,-1.0,-1.0,-1.0,-1.0,-0.022636869265673522,0.0002663161090079238,0.0042610577441267805,0.0006,0.0,0.0,0.0,0.0006,0.0,0.0,0.0,0.0006,0.22026655273437498,-0.3064578125,10.012551342773437,0.01,0.0,0.0,0.0,0.01,0.0,0.0,0.0,0.01
1678822354.6880991,11994,1678822354,685485015,aquila2/os_imu,0.0,0.0,0.0,0.0,-1.0,-1.0,-1.0,-1.0,-1.0,-1.0,-1.0,-1.0,-1.0,-0.01038632825130903,-0.007989483270237714,0.0033289513625990473,0.0006,0.0,0.0,0.0,0.0006,0.0,0.0,0.0,0.0006,0.2537853759765625,-0.6775590698242188,9.74200655517578,0.01,0.0,0.0,0.0,0.01,0.0,0.0,0.0,0.01
1678822354.6966846,11995,1678822354,695485056,aquila2/os_imu,0.0,0.0,0.0,0.0,-1.0,-1.0,-1.0,-1.0,-1.0,-1.0,-1.0,-1.0,-1.0,-0.0014647385995435807,-0.009321063815277333,-0.0003994741635118857,0.0006,0.0,0.0,0.0,0.0006,0.0,0.0,0.0,0.0006,0.07422025146484375,-0.6655880615234374,9.957484704589843,0.01,0.0,0.0,0.0,0.01,0.0,0.0,0.0,0.01
1678822354.7062309,11996,1678822354,705490074,aquila2/os_imu,0.0,0.0,0.0,0.0,-1.0,-1.0,-1.0,-1.0,-1.0,-1.0,-1.0,-1.0,-1.0,0.00625842856168621,-0.006524744670694133,0.0002663161090079238,0.0006,0.0,0.0,0.0,0.0006,0.0,0.0,0.0,0.0006,0.229843359375,-0.2609679809570312,9.720458740234374,0.01,0.0,0.0,0.0,0.01,0.0,0.0,0.0,0.01
1678822354.717105,11997,1678822354,715505264,aquila2/os_imu,0.0,0.0,0.0,0.0,-1.0,-1.0,-1.0,-1.0,-1.0,-1.0,-1.0,-1.0,-1.0,-0.0018642127630554665,-0.0006657902725198095,0.0007989483270237714,0.0006,0.0,0.0,0.0,0.0006,0.0,0.0,0.0,0.0006,0.12449848632812499,-0.3016694091796875,9.852139831542969,0.01,0.0,0.0,0.0,0.01,0.0,0.0,0.0,0.01
1678822354.7265306,11998,1678822354,725505362,aquila2/os_imu,0.0,0.0,0.0,0.0,-1.0,-1.0,-1.0,-1.0,-1.0,-1.0,-1.0,-1.0,-1.0,-0.020506340393610132,-0.005459480234662438,0.010785802414820914,0.0006,0.0,0.0,0.0,0.0006,0.0,0.0,0.0,0.0006,0.373495458984375,0.0383072265625,9.904812268066406,0.01,0.0,0.0,0.0,0.01,0.0,0.0,0.0,0.01
1678822354.7380993,11999,1678822354,735509892,aquila2/os_imu,0.0,0.0,0.0,0.0,-1.0,-1.0,-1.0,-1.0,-1.0,-1.0,-1.0,-1.0,-1.0,-0.01597896654047543,0.0066579027251980945,0.010918960469324876,0.0006,0.0,0.0,0.0,0.0006,0.0,0.0,0.0,0.0006,0.4070142822265625,-0.3232172241210937,9.701305126953125,0.01,0.0,0.0,0.0,0.01,0.0,0.0,0.0,0.01
1678822354.746869,12000,1678822354,745509678,aquila2/os_imu,0.0,0.0,0.0,0.0,-1.0,-1.0,-1.0,-1.0,-1.0,-1.0,-1.0,-1.0,-1.0,-0.0003994741635118857,-0.0022636869265673524,-0.0031957933080950856,0.0006,0.0,0.0,0.0,0.0006,0.0,0.0,0.0,0.0006,0.1149216796875,-0.6512228515624999,9.866505041503906,0.01,0.0,0.0,0.0,0.01,0.0,0.0,0.0,0.01
1678822354.7560673,12001,1678822354,755525662,aquila2/os_imu,0.0,0.0,0.0,0.0,-1.0,-1.0,-1.0,-1.0,-1.0,-1.0,-1.0,-1.0,-1.0,0.005326322180158476,-0.0066579027251980945,0.003728425526110933,0.0006,0.0,0.0,0.0,0.0006,0.0,0.0,0.0,0.0006,0.16998831787109375,-0.1388636962890625,9.60793126220703,0.01,0.0,0.0,0.0,0.01,0.0,0.0,0.0,0.01
1678822354.7671752,12002,1678822354,765529485,aquila2/os_imu,0.0,0.0,0.0,0.0,-1.0,-1.0,-1.0,-1.0,-1.0,-1.0,-1.0,-1.0,-1.0,-0.01038632825130903,-0.018375811521546742,0.0023968449810713144,0.0006,0.0,0.0,0.0,0.0006,0.0,0.0,0.0,0.0006,0.06464344482421874,-0.2059013427734375,9.82580361328125,0.01,0.0,0.0,0.0,0.01,0.0,0.0,0.0,0.01
1678822354.7764778,12003,1678822354,775529388,aquila2/os_imu,0.0,0.0,0.0,0.0,-1.0,-1.0,-1.0,-1.0,-1.0,-1.0,-1.0,-1.0,-1.0,-0.02037318233910617,0.014381069886427886,-0.0001331580545039619,0.0006,0.0,0.0,0.0,0.0006,0.0,0.0,0.0,0.0006,0.2705447875976562,-0.15322890625,9.861716638183593,0.01,0.0,0.0,0.0,0.01,0.0,0.0,0.0,0.01
1678822354.7881472,12004,1678822354,785546001,aquila2/os_imu,0.0,0.0,0.0,0.0,-1.0,-1.0,-1.0,-1.0,-1.0,-1.0,-1.0,-1.0,-1.0,-0.015046860158947694,0.00905474770626941,0.007856325215733753,0.0006,0.0,0.0,0.0,0.0006,0.0,0.0,0.0,0.0006,0.18914193115234373,-0.6200982299804687,9.552864624023437,0.01,0.0,0.0,0.0,0.01,0.0,0.0,0.0,0.01
1678822354.7968605,12005,1678822354,795546072,aquila2/os_imu,0.0,0.0,0.0,0.0,-1.0,-1.0,-1.0,-1.0,-1.0,-1.0,-1.0,-1.0,-1.0,-0.0,-0.007723167161229791,0.0005326322180158476,0.0006,0.0,0.0,0.0,0.0006,0.0,0.0,0.0,0.0006,0.0430956298828125,-0.7445967163085937,9.866505041503906,0.01,0.0,0.0,0.0,0.01,0.0,0.0,0.0,0.01
1678822354.8062654,12006,1678822354,805549082,aquila2/os_imu,0.0,0.0,0.0,0.0,-1.0,-1.0,-1.0,-1.0,-1.0,-1.0,-1.0,-1.0,-1.0,0.00905474770626941,-0.0268979270098003,0.0049268480166465905,0.0006,0.0,0.0,0.0,0.0006,0.0,0.0,0.0,0.0006,0.0430956298828125,-0.6272808349609375,9.725247143554688,0.01,0.0,0.0,0.0,0.01,0.0,0.0,0.0,0.01
1678822354.8172126,12007,1678822354,815566297,aquila2/os_imu,0.0,0.0,0.0,0.0,-1.0,-1.0,-1.0,-1.0,-1.0,-1.0,-1.0,-1.0,-1.0,0.002530003035575276,-0.015046860158947694,-0.0029294771990871615,0.0006,0.0,0.0,0.0,0.0006,0.0,0.0,0.0,0.0006,0.0383072265625,-0.26815058593749996,9.734823950195311,0.01,0.0,0.0,0.0,0.01,0.0,0.0,0.0,0.01
1678822354.8266282,12008,1678822354,825566366,aquila2/os_imu,0.0,0.0,0.0,0.0,-1.0,-1.0,-1.0,-1.0,-1.0,-1.0,-1.0,-1.0,-1.0,-0.018642127630554665,-0.005858954398174323,0.005193164125654515,0.0006,0.0,0.0,0.0,0.0006,0.0,0.0,0.0,0.0006,0.22026655273437498,-0.2705447875976562,10.105925207519531,0.01,0.0,0.0,0.0,0.01,0.0,0.0,0.0,0.01
1678822354.8381755,12009,1678822354,835568879,aquila2/os_imu,0.0,0.0,0.0,0.0,-1.0,-1.0,-1.0,-1.0,-1.0,-1.0,-1.0,-1.0,-1.0,-0.00972053797878922,0.005459480234662438,0.005459480234662438,0.0006,0.0,0.0,0.0,0.0006,0.0,0.0,0.0,0.0006,0.22744915771484372,-0.5267243652343749,9.770736975097655,0.01,0.0,0.0,0.0,0.01,0.0,0.0,0.0,0.01
1678822354.8469036,12010,1678822354,845568710,aquila2/os_imu,0.0,0.0,0.0,0.0,-1.0,-1.0,-1.0,-1.0,-1.0,-1.0,-1.0,-1.0,-1.0,-0.0031957933080950856,-0.007190534943213943,0.0005326322180158476,0.0006,0.0,0.0,0.0,0.0006,0.0,0.0,0.0,0.0006,-0.028730419921875,-0.584185205078125,9.871293444824218,0.01,0.0,0.0,0.0,0.01,0.0,0.0,0.0,0.01
1678822354.8562353,12011,1678822354,855586756,aquila2/os_imu,0.0,0.0,0.0,0.0,-1.0,-1.0,-1.0,-1.0,-1.0,-1.0,-1.0,-1.0,-1.0,0.01251685712337242,-0.01265001517787638,0.007989483270237714,0.0006,0.0,0.0,0.0,0.0006,0.0,0.0,0.0,0.0006,0.35673604736328124,-0.04548983154296875,9.935936889648437,0.01,0.0,0.0,0.0,0.01,0.0,0.0,0.0,0.01
1678822354.8671875,12012,1678822354,865586848,aquila2/os_imu,0.0,0.0,0.0,0.0,-1.0,-1.0,-1.0,-1.0,-1.0,-1.0,-1.0,-1.0,-1.0,-0.005858954398174323,-0.010519486305812991,0.003994741635118857,0.0006,0.0,0.0,0.0,0.0006,0.0,0.0,0.0,0.0006,0.20350714111328125,-0.09816226806640624,10.024522351074218,0.01,0.0,0.0,0.0,0.01,0.0,0.0,0.0,0.01
1678822354.876621,12013,1678822354,875588412,aquila2/os_imu,0.0,0.0,0.0,0.0,-1.0,-1.0,-1.0,-1.0,-1.0,-1.0,-1.0,-1.0,-1.0,-0.016644756812995237,-0.005459480234662438,0.004793689962142629,0.0006,0.0,0.0,0.0,0.0006,0.0,0.0,0.0,0.0006,0.3758896606445312,-0.1484405029296875,9.981426721191406,0.01,0.0,0.0,0.0,0.01,0.0,0.0,0.0,0.01
1678822354.8882205,12014,1678822354,885607042,aquila2/os_imu,0.0,0.0,0.0,0.0,-1.0,-1.0,-1.0,-1.0,-1.0,-1.0,-1.0,-1.0,-1.0,-0.009986854087797143,-0.008122641324741676,0.0083889574337496,0.0006,0.0,0.0,0.0,0.0006,0.0,0.0,0.0,0.0006,0.32561142578124996,-0.7062894897460937,9.835380419921874,0.01,0.0,0.0,0.0,0.01,0.0,0.0,0.0,0.01
1678822354.897008,12015,1678822354,895607135,aquila2/os_imu,0.0,0.0,0.0,0.0,-1.0,-1.0,-1.0,-1.0,-1.0,-1.0,-1.0,-1.0,-1.0,-0.003728425526110933,0.007190534943213943,-0.001331580545039619,0.0006,0.0,0.0,0.0,0.0006,0.0,0.0,0.0,0.0006,0.25139117431640623,-0.833182177734375,10.012551342773437,0.01,0.0,0.0,0.0,0.01,0.0,0.0,0.0,0.01
1678822354.90644,12016,1678822354,905608122,aquila2/os_imu,0.0,0.0,0.0,0.0,-1.0,-1.0,-1.0,-1.0,-1.0,-1.0,-1.0,-1.0,-1.0,0.007989483270237714,-0.005326322180158476,0.003728425526110933,0.0006,0.0,0.0,0.0,0.0006,0.0,0.0,0.0,0.0006,-0.0,-0.30885201416015623,9.739612353515625,0.01,0.0,0.0,0.0,0.01,0.0,0.0,0.0,0.01
1678822354.917371,12017,1678822354,915608149,aquila2/os_imu,0.0,0.0,0.0,0.0,-1.0,-1.0,-1.0,-1.0,-1.0,-1.0,-1.0,-1.0,-1.0,-0.0014647385995435807,-0.014514227940931847,0.0015978966540475428,0.0006,0.0,0.0,0.0,0.0006,0.0,0.0,0.0,0.0006,0.028730419921875,-0.32082302246093747,9.97903251953125,0.01,0.0,0.0,0.0,0.01,0.0,0.0,0.0,0.01
1678822354.926687,12018,1678822354,925627222,aquila2/os_imu,0.0,0.0,0.0,0.0,-1.0,-1.0,-1.0,-1.0,-1.0,-1.0,-1.0,-1.0,-1.0,-0.02423476591972107,0.0023968449810713144,0.00346210941710301,0.0006,0.0,0.0,0.0,0.0006,0.0,0.0,0.0,0.0006,0.26336218261718747,-0.3327940307617187,9.830592016601562,0.01,0.0,0.0,0.0,0.01,0.0,0.0,0.0,0.01
1678822354.9383304,12019,1678822354,935628014,aquila2/os_imu,0.0,0.0,0.0,0.0,-1.0,-1.0,-1.0,-1.0,-1.0,-1.0,-1.0,-1.0,-1.0,-0.009187905760773371,0.0111852765783328,0.0055926382891664,0.0006,0.0,0.0,0.0,0.0006,0.0,0.0,0.0,0.0006,0.2442085693359375,-0.7637503295898437,9.770736975097655,0.01,0.0,0.0,0.0,0.01,0.0,0.0,0.0,0.01
1678822354.9470117,12020,1678822354,945627712,aquila2/os_imu,0.0,0.0,0.0,0.0,-1.0,-1.0,-1.0,-1.0,-1.0,-1.0,-1.0,-1.0,-1.0,0.0035952674716069714,0.003728425526110933,0.0027963191445832,0.0006,0.0,0.0,0.0,0.0006,0.0,0.0,0.0,0.0006,0.05985504150390625,-0.7829039428710937,10.043675964355469,0.01,0.0,0.0,0.0,0.01,0.0,0.0,0.0,0.01
1678822354.9563465,12021,1678822354,955647764,aquila2/os_imu,0.0,0.0,0.0,0.0,-1.0,-1.0,-1.0,-1.0,-1.0,-1.0,-1.0,-1.0,-1.0,0.010519486305812991,-0.015845808485971467,0.004660531907638666,0.0006,0.0,0.0,0.0,0.0006,0.0,0.0,0.0,0.0006,0.18914193115234373,-0.2753331909179687,9.801861596679688,0.01,0.0,0.0,0.0,0.01,0.0,0.0,0.0,0.01
1678822354.9673672,12022,1678822354,965647578,aquila2/os_imu,0.0,0.0,0.0,0.0,-1.0,-1.0,-1.0,-1.0,-1.0,-1.0,-1.0,-1.0,-1.0,-0.0021305288720633903,-0.009321063815277333,-0.0009321063815277333,0.0006,0.0,0.0,0.0,0.0006,0.0,0.0,0.0,0.0006,0.1388636962890625,-0.09816226806640624,9.842563024902343,0.01,0.0,0.0,0.0,0.01,0.0,0.0,0.0,0.01
1678822354.9766524,12023,1678822354,975647740,aquila2/os_imu,0.0,0.0,0.0,0.0,-1.0,-1.0,-1.0,-1.0,-1.0,-1.0,-1.0,-1.0,-1.0,-0.03022687837239935,0.004394215798630743,0.004394215798630743,0.0006,0.0,0.0,0.0,0.0006,0.0,0.0,0.0,0.0006,0.3232172241210937,0.076614453125,9.935936889648437,0.01,0.0,0.0,0.0,0.01,0.0,0.0,0.0,0.01
1678822354.9883103,12024,1678822354,985667493,aquila2/os_imu,0.0,0.0,0.0,0.0,-1.0,-1.0,-1.0,-1.0,-1.0,-1.0,-1.0,-1.0,-1.0,-0.015446334322459582,0.011318434632836761,0.003728425526110933,0.0006,0.0,0.0,0.0,0.0006,0.0,0.0,0.0,0.0006,0.08140285644531249,-0.17238251953125,9.888052856445311,0.01,0.0,0.0,0.0,0.01,0.0,0.0,0.0,0.01
1678822354.9970977,12025,1678822354,995666931,aquila2/os_imu,0.0,0.0,0.0,0.0,-1.0,-1.0,-1.0,-1.0,-1.0,-1.0,-1.0,-1.0,-1.0,0.003062635253591124,-0.004660531907638666,-0.0014647385995435807,0.0006,0.0,0.0,0.0,0.0006,0.0,0.0,0.0,0.0006,0.15083470458984374,-0.46686932373046874,10.08677159423828,0.01,0.0,0.0,0.0,0.01,0.0,0.0,0.0,0.01
1678822355.0065,12026,1678822355,5668367,aquila2/os_imu,0.0,0.0,0.0,0.0,-1.0,-1.0,-1.0,-1.0,-1.0,-1.0,-1.0,-1.0,-1.0,0.004527373853134705,-0.009853696033293181,0.00972053797878922,0.0006,0.0,0.0,0.0,0.0006,0.0,0.0,0.0,0.0006,0.2561795776367187,0.02154781494140625,9.74200655517578,0.01,0.0,0.0,0.0,0.01,0.0,0.0,0.0,0.01
1678822355.017408,12027,1678822355,15668265,aquila2/os_imu,0.0,0.0,0.0,0.0,-1.0,-1.0,-1.0,-1.0,-1.0,-1.0,-1.0,-1.0,-1.0,-0.007989483270237714,-0.015046860158947694,-0.0035952674716069714,0.0006,0.0,0.0,0.0,0.0006,0.0,0.0,0.0,0.0006,-0.00718260498046875,0.01915361328125,9.83777462158203,0.01,0.0,0.0,0.0,0.01,0.0,0.0,0.0,0.01
1678822355.0268354,12028,1678822355,25687053,aquila2/os_imu,0.0,0.0,0.0,0.0,-1.0,-1.0,-1.0,-1.0,-1.0,-1.0,-1.0,-1.0,-1.0,-0.01344896350490015,-0.0021305288720633903,0.0007989483270237714,0.0006,0.0,0.0,0.0,0.0006,0.0,0.0,0.0,0.0006,0.25139117431640623,-0.41419688720703124,10.065223779296874,0.01,0.0,0.0,0.0,0.01,0.0,0.0,0.0,0.01
1678822355.036152,12029,1678822355,35686949,aquila2/os_imu,0.0,0.0,0.0,0.0,-1.0,-1.0,-1.0,-1.0,-1.0,-1.0,-1.0,-1.0,-1.0,-0.01251685712337242,0.00692421883420602,0.004660531907638666,0.0006,0.0,0.0,0.0,0.0006,0.0,0.0,0.0,0.0006,0.13168109130859373,-0.6943184814453125,9.655815295410155,0.01,0.0,0.0,0.0,0.01,0.0,0.0,0.0,0.01
1678822355.0471234,12030,1678822355,45688509,aquila2/os_imu,0.0,0.0,0.0,0.0,-1.0,-1.0,-1.0,-1.0,-1.0,-1.0,-1.0,-1.0,-1.0,0.001331580545039619,-0.011318434632836761,0.002530003035575276,0.0006,0.0,0.0,0.0,0.0006,0.0,0.0,0.0,0.0006,0.19393033447265623,-0.7302315063476562,9.931148486328125,0.01,0.0,0.0,0.0,0.01,0.0,0.0,0.0,0.01
1678822355.056372,12031,1678822355,55706740,aquila2/os_imu,0.0,0.0,0.0,0.0,-1.0,-1.0,-1.0,-1.0,-1.0,-1.0,-1.0,-1.0,-1.0,0.015579492376963544,-0.011052118523828838,-0.0015978966540475428,0.0006,0.0,0.0,0.0,0.0006,0.0,0.0,0.0,0.0006,0.023942016601562498,-0.4477157104492187,9.811438403320311,0.01,0.0,0.0,0.0,0.01,0.0,0.0,0.0,0.01
1678822355.0674343,12032,1678822355,65706725,aquila2/os_imu,0.0,0.0,0.0,0.0,-1.0,-1.0,-1.0,-1.0,-1.0,-1.0,-1.0,-1.0,-1.0,-0.0009321063815277333,-0.014913702104443732,-0.0023968449810713144,0.0006,0.0,0.0,0.0,0.0006,0.0,0.0,0.0,0.0006,0.0430956298828125,-0.040701428222656245,9.945513696289062,0.01,0.0,0.0,0.0,0.01,0.0,0.0,0.0,0.01
1678822355.0768752,12033,1678822355,75708985,aquila2/os_imu,0.0,0.0,0.0,0.0,-1.0,-1.0,-1.0,-1.0,-1.0,-1.0,-1.0,-1.0,-1.0,-0.02356897564720126,-0.014247911831923924,0.0003994741635118857,0.0006,0.0,0.0,0.0,0.0006,0.0,0.0,0.0,0.0006,0.32561142578124996,-0.1005564697265625,10.08677159423828,0.01,0.0,0.0,0.0,0.01,0.0,0.0,0.0,0.01
1678822355.0862427,12034,1678822355,85709160,aquila2/os_imu,0.0,0.0,0.0,0.0,-1.0,-1.0,-1.0,-1.0,-1.0,-1.0,-1.0,-1.0,-1.0,-0.0014647385995435807,-0.01944107595757844,0.01478054404993977,0.0006,0.0,0.0,0.0,0.0006,0.0,0.0,0.0,0.0006,0.33518823242187495,-0.2442085693359375,10.031704956054687,0.01,0.0,0.0,0.0,0.01,0.0,0.0,0.0,0.01
1678822355.097237,12035,1678822355,95726303,aquila2/os_imu,0.0,0.0,0.0,0.0,-1.0,-1.0,-1.0,-1.0,-1.0,-1.0,-1.0,-1.0,-1.0,0.003062635253591124,0.0023968449810713144,0.0033289513625990473,0.0006,0.0,0.0,0.0,0.0006,0.0,0.0,0.0,0.0006,0.34237083740234375,-0.35194764404296874,9.974244116210937,0.01,0.0,0.0,0.0,0.01,0.0,0.0,0.0,0.01
1678822355.1065915,12036,1678822355,105729388,aquila2/os_imu,0.0,0.0,0.0,0.0,-1.0,-1.0,-1.0,-1.0,-1.0,-1.0,-1.0,-1.0,-1.0,0.001731054708551505,-0.015845808485971467,0.005725796343670361,0.0006,0.0,0.0,0.0,0.0006,0.0,0.0,0.0,0.0006,0.26336218261718747,-0.181959326171875,9.897629663085937,0.01,0.0,0.0,0.0,0.01,0.0,0.0,0.0,0.01
1678822355.1174808,12037,1678822355,115729516,aquila2/os_imu,0.0,0.0,0.0,0.0,-1.0,-1.0,-1.0,-1.0,-1.0,-1.0,-1.0,-1.0,-1.0,-0.0009321063815277333,-0.019307917903074477,-0.0007989483270237714,0.0006,0.0,0.0,0.0,0.0006,0.0,0.0,0.0,0.0006,0.3758896606445312,0.06464344482421874,10.005368737792969,0.01,0.0,0.0,0.0,0.01,0.0,0.0,0.0,0.01
1678822355.1268337,12038,1678822355,125746017,aquila2/os_imu,0.0,0.0,0.0,0.0,-1.0,-1.0,-1.0,-1.0,-1.0,-1.0,-1.0,-1.0,-1.0,-0.015712650431467506,0.0002663161090079238,0.0027963191445832,0.0006,0.0,0.0,0.0,0.0006,0.0,0.0,0.0,0.0006,0.4333505004882812,0.031124621582031248,10.01733974609375,0.01,0.0,0.0,0.0,0.01,0.0,0.0,0.0,0.01
1678822355.1362302,12039,1678822355,135745569,aquila2/os_imu,0.0,0.0,0.0,0.0,-1.0,-1.0,-1.0,-1.0,-1.0,-1.0,-1.0,-1.0,-1.0,-0.014514227940931847,0.01344896350490015,0.006524744670694133,0.0006,0.0,0.0,0.0,0.0006,0.0,0.0,0.0,0.0006,0.16519991455078123,-0.4381389038085937,9.835380419921874,0.01,0.0,0.0,0.0,0.01,0.0,0.0,0.0,0.01
1678822355.147134,12040,1678822355,145749752,aquila2/os_imu,0.0,0.0,0.0,0.0,-1.0,-1.0,-1.0,-1.0,-1.0,-1.0,-1.0,-1.0,-1.0,0.0022636869265673524,0.00692421883420602,0.0021305288720633903,0.0006,0.0,0.0,0.0,0.0006,0.0,0.0,0.0,0.0006,0.15322890625,-0.6703764648437499,10.103531005859374,0.01,0.0,0.0,0.0,0.01,0.0,0.0,0.0,0.01
1678822355.1565928,12041,1678822355,155765783,aquila2/os_imu,0.0,0.0,0.0,0.0,-1.0,-1.0,-1.0,-1.0,-1.0,-1.0,-1.0,-1.0,-1.0,0.015180018213451656,0.007456851052221866,0.004660531907638666,0.0006,0.0,0.0,0.0,0.0006,0.0,0.0,0.0,0.0006,-0.055066638183593745,-0.296881005859375,9.967061511230469,0.01,0.0,0.0,0.0,0.01,0.0,0.0,0.0,0.01
1678822355.1673908,12042,1678822355,165765675,aquila2/os_imu,0.0,0.0,0.0,0.0,-1.0,-1.0,-1.0,-1.0,-1.0,-1.0,-1.0,-1.0,-1.0,0.0015978966540475428,-0.016245282649483352,0.0002663161090079238,0.0006,0.0,0.0,0.0,0.0006,0.0,0.0,0.0,0.0006,-0.14125789794921875,-0.13407529296874998,9.892841259765625,0.01,0.0,0.0,0.0,0.01,0.0,0.0,0.0,0.01
1678822355.176936,12043,1678822355,175769991,aquila2/os_imu,0.0,0.0,0.0,0.0,-1.0,-1.0,-1.0,-1.0,-1.0,-1.0,-1.0,-1.0,-1.0,-0.02316950148368937,-0.013049489341388266,0.0049268480166465905,0.0006,0.0,0.0,0.0,0.0006,0.0,0.0,0.0,0.0006,0.143652099609375,-0.3112462158203125,9.904812268066406,0.01,0.0,0.0,0.0,0.01,0.0,0.0,0.0,0.01
1678822355.1864414,12044,1678822355,185770276,aquila2/os_imu,0.0,0.0,0.0,0.0,-1.0,-1.0,-1.0,-1.0,-1.0,-1.0,-1.0,-1.0,-1.0,-0.0029294771990871615,-0.008255799379245638,0.00692421883420602,0.0006,0.0,0.0,0.0,0.0006,0.0,0.0,0.0,0.0006,0.181959326171875,-0.6272808349609375,9.698910925292969,0.01,0.0,0.0,0.0,0.01,0.0,0.0,0.0,0.01
1678822355.1972196,12045,1678822355,195785416,aquila2/os_imu,0.0,0.0,0.0,0.0,-1.0,-1.0,-1.0,-1.0,-1.0,-1.0,-1.0,-1.0,-1.0,0.0001331580545039619,-0.0031957933080950856,0.0042610577441267805,0.0006,0.0,0.0,0.0,0.0006,0.0,0.0,0.0,0.0006,0.1771709228515625,-0.5506663818359374,9.993397729492187,0.01,0.0,0.0,0.0,0.01,0.0,0.0,0.0,0.01
1678822355.2066455,12046,1678822355,205790326,aquila2/os_imu,0.0,0.0,0.0,0.0,-1.0,-1.0,-1.0,-1.0,-1.0,-1.0,-1.0,-1.0,-1.0,0.005459480234662438,-0.014913702104443732,0.007190534943213943,0.0006,0.0,0.0,0.0,0.0006,0.0,0.0,0.0,0.0006,0.062249243164062495,-0.15322890625,9.667786303710937,0.01,0.0,0.0,0.0,0.01,0.0,0.0,0.0,0.01
1678822355.2176046,12047,1678822355,215790546,aquila2/os_imu,0.0,0.0,0.0,0.0,-1.0,-1.0,-1.0,-1.0,-1.0,-1.0,-1.0,-1.0,-1.0,0.0019973708175594286,-0.013182647395892227,0.0005326322180158476,0.0006,0.0,0.0,0.0,0.0006,0.0,0.0,0.0,0.0006,0.2154781494140625,-0.0909796630859375,9.85692823486328,0.01,0.0,0.0,0.0,0.01,0.0,0.0,0.0,0.01
1678822355.2269714,12048,1678822355,225804837,aquila2/os_imu,0.0,0.0,0.0,0.0,-1.0,-1.0,-1.0,-1.0,-1.0,-1.0,-1.0,-1.0,-1.0,-0.020106866230098247,0.0021305288720633903,0.00625842856168621,0.0006,0.0,0.0,0.0,0.0006,0.0,0.0,0.0,0.0006,0.16998831787109375,0.16041151123046873,10.081983190917969,0.01,0.0,0.0,0.0,0.01,0.0,0.0,0.0,0.01
1678822355.2362914,12049,1678822355,235804754,aquila2/os_imu,0.0,0.0,0.0,0.0,-1.0,-1.0,-1.0,-1.0,-1.0,-1.0,-1.0,-1.0,-1.0,-0.01344896350490015,-0.015712650431467506,0.007856325215733753,0.0006,0.0,0.0,0.0,0.0006,0.0,0.0,0.0,0.0006,0.2753331909179687,-0.15083470458984374,9.579200842285156,0.01,0.0,0.0,0.0,0.01,0.0,0.0,0.0,0.01
1678822355.2472363,12050,1678822355,245810713,aquila2/os_imu,0.0,0.0,0.0,0.0,-1.0,-1.0,-1.0,-1.0,-1.0,-1.0,-1.0,-1.0,-1.0,-0.0002663161090079238,-0.0015978966540475428,0.005193164125654515,0.0006,0.0,0.0,0.0,0.0006,0.0,0.0,0.0,0.0006,0.17956512451171874,-0.7206546997070312,9.897629663085937,0.01,0.0,0.0,0.0,0.01,0.0,0.0,0.0,0.01
1678822355.256591,12051,1678822355,255810647,aquila2/os_imu,0.0,0.0,0.0,0.0,-1.0,-1.0,-1.0,-1.0,-1.0,-1.0,-1.0,-1.0,-1.0,0.0011984224905356572,-0.0031957933080950856,0.0049268480166465905,0.0006,0.0,0.0,0.0,0.0006,0.0,0.0,0.0,0.0006,0.15083470458984374,-0.105344873046875,9.78031378173828,0.01,0.0,0.0,0.0,0.01,0.0,0.0,0.0,0.01
1678822355.2674956,12052,1678822355,265824851,aquila2/os_imu,0.0,0.0,0.0,0.0,-1.0,-1.0,-1.0,-1.0,-1.0,-1.0,-1.0,-1.0,-1.0,-0.012916331286884304,-0.008788431597261486,-0.007057376888709981,0.0006,0.0,0.0,0.0,0.0006,0.0,0.0,0.0,0.0006,-0.06464344482421874,-0.033518823242187495,9.813832604980469,0.01,0.0,0.0,0.0,0.01,0.0,0.0,0.0,0.01
1678822355.2770705,12053,1678822355,275830974,aquila2/os_imu,0.0,0.0,0.0,0.0,-1.0,-1.0,-1.0,-1.0,-1.0,-1.0,-1.0,-1.0,-1.0,-0.014381069886427886,-0.0042610577441267805,0.005326322180158476,0.0006,0.0,0.0,0.0,0.0006,0.0,0.0,0.0,0.0006,0.2609679809570312,-0.07422025146484375,9.770736975097655,0.01,0.0,0.0,0.0,0.01,0.0,0.0,0.0,0.01
1678822355.286466,12054,1678822355,285831277,aquila2/os_imu,0.0,0.0,0.0,0.0,-1.0,-1.0,-1.0,-1.0,-1.0,-1.0,-1.0,-1.0,-1.0,-0.005193164125654515,-0.009187905760773371,0.0029294771990871615,0.0006,0.0,0.0,0.0,0.0006,0.0,0.0,0.0,0.0006,0.29927520751953124,-0.6200982299804687,9.823409411621093,0.01,0.0,0.0,0.0,0.01,0.0,0.0,0.0,0.01
1678822355.2973652,12055,1678822355,295844331,aquila2/os_imu,0.0,0.0,0.0,0.0,-1.0,-1.0,-1.0,-1.0,-1.0,-1.0,-1.0,-1.0,-1.0,-0.0002663161090079238,-0.013981595722916,-0.0007989483270237714,0.0006,0.0,0.0,0.0,0.0006,0.0,0.0,0.0,0.0006,0.05985504150390625,-0.6009446166992187,9.679757312011718,0.01,0.0,0.0,0.0,0.01,0.0,0.0,0.0,0.01
1678822355.3067758,12056,1678822355,305844010,aquila2/os_imu,0.0,0.0,0.0,0.0,-1.0,-1.0,-1.0,-1.0,-1.0,-1.0,-1.0,-1.0,-1.0,0.0111852765783328,-0.021837920938649752,0.004394215798630743,0.0006,0.0,0.0,0.0,0.0006,0.0,0.0,0.0,0.0006,-0.12449848632812499,-0.32561142578124996,9.682151513671874,0.01,0.0,0.0,0.0,0.01,0.0,0.0,0.0,0.01
1678822355.3176987,12057,1678822355,315851555,aquila2/os_imu,0.0,0.0,0.0,0.0,-1.0,-1.0,-1.0,-1.0,-1.0,-1.0,-1.0,-1.0,-1.0,0.0011984224905356572,-0.009454221869781294,-0.0033289513625990473,0.0006,0.0,0.0,0.0,0.0006,0.0,0.0,0.0,0.0006,-0.1197100830078125,-0.22026655273437498,9.928754284667969,0.01,0.0,0.0,0.0,0.01,0.0,0.0,0.0,0.01
1678822355.32716,12058,1678822355,325864021,aquila2/os_imu,0.0,0.0,0.0,0.0,-1.0,-1.0,-1.0,-1.0,-1.0,-1.0,-1.0,-1.0,-1.0,-0.01611212459497939,-0.006524744670694133,0.0009321063815277333,0.0006,0.0,0.0,0.0,0.0006,0.0,0.0,0.0,0.0006,0.3112462158203125,0.0383072265625,10.103531005859374,0.01,0.0,0.0,0.0,0.01,0.0,0.0,0.0,0.01
1678822355.3364108,12059,1678822355,335863655,aquila2/os_imu,0.0,0.0,0.0,0.0,-1.0,-1.0,-1.0,-1.0,-1.0,-1.0,-1.0,-1.0,-1.0,-0.012250541014364496,-0.015180018213451656,0.009187905760773371,0.0006,0.0,0.0,0.0,0.0006,0.0,0.0,0.0,0.0006,0.14125789794921875,-0.4285620971679687,9.651026892089844,0.01,0.0,0.0,0.0,0.01,0.0,0.0,0.0,0.01
1678822355.347336,12060,1678822355,345871754,aquila2/os_imu,0.0,0.0,0.0,0.0,-1.0,-1.0,-1.0,-1.0,-1.0,-1.0,-1.0,-1.0,-1.0,0.001331580545039619,-0.00692421883420602,0.00346210941710301,0.0006,0.0,0.0,0.0,0.0006,0.0,0.0,0.0,0.0006,0.08858546142578125,-0.38307226562499996,10.084377392578125,0.01,0.0,0.0,0.0,0.01,0.0,0.0,0.0,0.01
1678822355.3566673,12061,1678822355,355871840,aquila2/os_imu,0.0,0.0,0.0,0.0,-1.0,-1.0,-1.0,-1.0,-1.0,-1.0,-1.0,-1.0,-1.0,0.013981595722916,-0.015845808485971467,0.0027963191445832,0.0006,0.0,0.0,0.0,0.0006,0.0,0.0,0.0,0.0006,0.3327940307617187,-0.30885201416015623,9.97184991455078,0.01,0.0,0.0,0.0,0.01,0.0,0.0,0.0,0.01
1678822355.3675866,12062,1678822355,365883664,aquila2/os_imu,0.0,0.0,0.0,0.0,-1.0,-1.0,-1.0,-1.0,-1.0,-1.0,-1.0,-1.0,-1.0,-0.00972053797878922,0.008788431597261486,-0.00346210941710301,0.0006,0.0,0.0,0.0,0.0006,0.0,0.0,0.0,0.0006,0.12449848632812499,-0.03591302490234375,9.919177478027343,0.01,0.0,0.0,0.0,0.01,0.0,0.0,0.0,0.01
1678822355.3771615,12063,1678822355,375892015,aquila2/os_imu,0.0,0.0,0.0,0.0,-1.0,-1.0,-1.0,-1.0,-1.0,-1.0,-1.0,-1.0,-1.0,-0.01731054708551505,-0.008522115488253561,0.005992112452678286,0.0006,0.0,0.0,0.0,0.0006,0.0,0.0,0.0,0.0006,0.33758243408203126,-0.105344873046875,9.945513696289062,0.01,0.0,0.0,0.0,0.01,0.0,0.0,0.0,0.01
1678822355.3865106,12064,1678822355,385892117,aquila2/os_imu,0.0,0.0,0.0,0.0,-1.0,-1.0,-1.0,-1.0,-1.0,-1.0,-1.0,-1.0,-1.0,-0.0083889574337496,-0.007456851052221866,0.006391586616190171,0.0006,0.0,0.0,0.0,0.0006,0.0,0.0,0.0,0.0006,0.316034619140625,-0.6416460449218749,9.962273107910155,0.01,0.0,0.0,0.0,0.01,0.0,0.0,0.0,0.01
1678822355.39744,12065,1678822355,395903183,aquila2/os_imu,0.0,0.0,0.0,0.0,-1.0,-1.0,-1.0,-1.0,-1.0,-1.0,-1.0,-1.0,-1.0,0.0049268480166465905,0.005992112452678286,0.003994741635118857,0.0006,0.0,0.0,0.0,0.0006,0.0,0.0,0.0,0.0006,0.1149216796875,-0.8403647827148437,9.832986218261718,0.01,0.0,0.0,0.0,0.01,0.0,0.0,0.0,0.01
1678822355.4068127,12066,1678822355,405903227,aquila2/os_imu,0.0,0.0,0.0,0.0,-1.0,-1.0,-1.0,-1.0,-1.0,-1.0,-1.0,-1.0,-1.0,0.007989483270237714,-0.009853696033293181,0.0014647385995435807,0.0006,0.0,0.0,0.0,0.0006,0.0,0.0,0.0,0.0006,0.016759411621093748,-0.3902548706054687,9.68454571533203,0.01,0.0,0.0,0.0,0.01,0.0,0.0,0.0,0.01
1678822355.4177737,12067,1678822355,415912275,aquila2/os_imu,0.0,0.0,0.0,0.0,-1.0,-1.0,-1.0,-1.0,-1.0,-1.0,-1.0,-1.0,-1.0,0.002663161090079238,-0.011717908796348646,0.0018642127630554665,0.0006,0.0,0.0,0.0,0.0006,0.0,0.0,0.0,0.0006,-0.07900865478515624,-0.33039982910156246,10.151415039062499,0.01,0.0,0.0,0.0,0.01,0.0,0.0,0.0,0.01
1678822355.4271371,12068,1678822355,425922961,aquila2/os_imu,0.0,0.0,0.0,0.0,-1.0,-1.0,-1.0,-1.0,-1.0,-1.0,-1.0,-1.0,-1.0,-0.019307917903074477,-0.0038615835806148956,0.0014647385995435807,0.0006,0.0,0.0,0.0,0.0006,0.0,0.0,0.0,0.0006,0.2825157958984375,-0.29448680419921874,10.014945544433592,0.01,0.0,0.0,0.0,0.01,0.0,0.0,0.0,0.01
1678822355.43649,12069,1678822355,435922953,aquila2/os_imu,0.0,0.0,0.0,0.0,-1.0,-1.0,-1.0,-1.0,-1.0,-1.0,-1.0,-1.0,-1.0,-0.0083889574337496,-0.005193164125654515,0.0015978966540475428,0.0006,0.0,0.0,0.0,0.0006,0.0,0.0,0.0,0.0006,0.26336218261718747,-0.6177040283203125,9.68454571533203,0.01,0.0,0.0,0.0,0.01,0.0,0.0,0.0,0.01
1678822355.4473581,12070,1678822355,445932766,aquila2/os_imu,0.0,0.0,0.0,0.0,-1.0,-1.0,-1.0,-1.0,-1.0,-1.0,-1.0,-1.0,-1.0,0.0014647385995435807,-0.009587379924285258,0.0035952674716069714,0.0006,0.0,0.0,0.0,0.0006,0.0,0.0,0.0,0.0006,0.11252747802734374,-0.5434837768554687,9.945513696289062,0.01,0.0,0.0,0.0,0.01,0.0,0.0,0.0,0.01
1678822355.4568367,12071,1678822355,455932886,aquila2/os_imu,0.0,0.0,0.0,0.0,-1.0,-1.0,-1.0,-1.0,-1.0,-1.0,-1.0,-1.0,-1.0,0.007989483270237714,-0.013182647395892227,0.007590009106725828,0.0006,0.0,0.0,0.0,0.0006,0.0,0.0,0.0,0.0006,0.12210428466796874,-0.44532150878906246,9.928754284667969,0.01,0.0,0.0,0.0,0.01,0.0,0.0,0.0,0.01
1678822355.4677398,12072,1678822355,465942636,aquila2/os_imu,0.0,0.0,0.0,0.0,-1.0,-1.0,-1.0,-1.0,-1.0,-1.0,-1.0,-1.0,-1.0,-0.005193164125654515,-0.009986854087797143,-0.0022636869265673524,0.0006,0.0,0.0,0.0,0.0006,0.0,0.0,0.0,0.0006,0.1580173095703125,-0.07422025146484375,9.986215124511718,0.01,0.0,0.0,0.0,0.01,0.0,0.0,0.0,0.01
1678822355.4772217,12073,1678822355,475942565,aquila2/os_imu,0.0,0.0,0.0,0.0,-1.0,-1.0,-1.0,-1.0,-1.0,-1.0,-1.0,-1.0,-1.0,-0.024634240083232953,-0.005992112452678286,0.0035952674716069714,0.0006,0.0,0.0,0.0,0.0006,0.0,0.0,0.0,0.0006,0.34237083740234375,0.13646949462890623,9.821015209960937,0.01,0.0,0.0,0.0,0.01,0.0,0.0,0.0,0.01
1678822355.4866822,12074,1678822355,485952931,aquila2/os_imu,0.0,0.0,0.0,0.0,-1.0,-1.0,-1.0,-1.0,-1.0,-1.0,-1.0,-1.0,-1.0,-0.010652644360316953,0.0014647385995435807,0.005326322180158476,0.0006,0.0,0.0,0.0,0.0006,0.0,0.0,0.0,0.0006,0.143652099609375,-0.4165910888671875,9.904812268066406,0.01,0.0,0.0,0.0,0.01,0.0,0.0,0.0,0.01
1678822355.4975822,12075,1678822355,495962257,aquila2/os_imu,0.0,0.0,0.0,0.0,-1.0,-1.0,-1.0,-1.0,-1.0,-1.0,-1.0,-1.0,-1.0,-0.003062635253591124,0.005459480234662438,0.0009321063815277333,0.0006,0.0,0.0,0.0,0.0006,0.0,0.0,0.0,0.0006,0.296881005859375,-0.469263525390625,9.900023864746093,0.01,0.0,0.0,0.0,0.01,0.0,0.0,0.0,0.01
1678822355.5068607,12076,1678822355,505962075,aquila2/os_imu,0.0,0.0,0.0,0.0,-1.0,-1.0,-1.0,-1.0,-1.0,-1.0,-1.0,-1.0,-1.0,0.013315805450396189,-0.02423476591972107,0.003994741635118857,0.0006,0.0,0.0,0.0,0.0006,0.0,0.0,0.0,0.0006,0.02633621826171875,-0.3112462158203125,9.718064538574218,0.01,0.0,0.0,0.0,0.01,0.0,0.0,0.0,0.01
1678822355.5178604,12077,1678822355,515973516,aquila2/os_imu,0.0,0.0,0.0,0.0,-1.0,-1.0,-1.0,-1.0,-1.0,-1.0,-1.0,-1.0,-1.0,0.0022636869265673524,-0.013981595722916,-0.007057376888709981,0.0006,0.0,0.0,0.0,0.0006,0.0,0.0,0.0,0.0006,0.047884033203124995,-0.11731588134765625,10.211270080566406,0.01,0.0,0.0,0.0,0.01,0.0,0.0,0.0,0.01
1678822355.5272257,12078,1678822355,525973580,aquila2/os_imu,0.0,0.0,0.0,0.0,-1.0,-1.0,-1.0,-1.0,-1.0,-1.0,-1.0,-1.0,-1.0,-0.014114753777419962,-0.015579492376963544,0.0011984224905356572,0.0006,0.0,0.0,0.0,0.0006,0.0,0.0,0.0,0.0006,0.19153613281249998,-0.2609679809570312,10.046070166015625,0.01,0.0,0.0,0.0,0.01,0.0,0.0,0.0,0.01
